##TITLE= STDACIDOBENZOICO
##JCAMP-DX= 4.24
##DATA TYPE= INFRARED SPECTRUM
##ORIGIN= JASCO
##OWNER= 
##DATE= 22/04/13
##TIME= 14:19:51
##SPECTROMETER/DATA SYSTEM= 
##RESOLUTION= 
##DELTAX=   0.48211674
##XUNITS= 1/CM
##YUNITS= TRANSMITTANCE
##XFACTOR= 1.00000
##YFACTOR= 1E-005
##FIRSTX=   599.7532
##LASTX=  4000.1226
##NPOINTS=     7054
##FIRSTY=      0.72521
##MAXY=      0.98098
##MINY=      0.09888
##XYDATA= (X++(Y..Y))
599.7532 72521 72506 72420 72233 71932 71522 71035 70532 70089 69775 69621
605.0565 69612 69693 69785 69817 69732 69508 69164 68765 68399 68146 68031
610.3598 68011 68003 67933 67775 67557 67322 67079 66784 66370 65804 65143
615.6631 64528 64134 64087 64396 64941 65532 66025 66380 66653 66926 67239
620.9664 67573 67864 68054 68127 68104 68003 67806 67459 66911 66170 65320
626.2697 64495 63817 63348 63078 62946 62866 62755 62540 62170 61622 60914
631.5729 60114 59322 58647 58168 57908 57832 57859 57881 57792 57511 57006
636.8762 56301 55477 54654 53973 53560 53480 53704 54097 54455 54581 54351
642.1795 53765 52928 52003 51146 50468 50025 49831 49862 50049 50260 50315
647.4828 50029 49296 48155 46811 45552 44629 44152 44072 44218 44373 44347
652.7861 44025 43393 42508 41462 40345 39232 38195 37298 36593 36078 35688
658.0894 35299 34763 33963 32838 31395 29713 27938 26266 24892 23918 23284
663.3926 22758 22042 20933 19421 17622 15648 13538 11389 9888 11472 19265
668.6959 30191 38551 44121 48531 52712 56902 60940 64494 67273 69156 70175
673.9992 70392 69815 68387 66040 62787 58789 54382 50038 46226 43252 41159
679.3025 39755 38720 37741 36599 35203 33590 31904 30383 29328 29037 29730
684.6058 31480 34174 37511 41037 44233 46648 48028 48372 47881 46846 45525
689.9091 44086 42605 41107 39611 38139 36713 35329 33959 32575 31180 29822
695.2123 28577 27499 26585 25761 24916 23946 22801 21505 20139 18817 17642
700.5156 16680 15944 15397 14970 14591 14220 13872 13636 13659 14129 15222
705.8189 17052 19630 22847 26506 30379 34269 38048 41655 45067 48286 51336
711.1222 54275 57194 60197 63366 66727 70242 73821 77340 80669 83698 86350
716.4255 88608 90514 92140 93553 94763 95725 96364 96645 96624 96445 96266
721.7288 96181 96201 96280 96369 96442 96504 96569 96635 96671 96631 96474
727.0320 96196 95838 95475 95188 95024 94987 95038 95123 95200 95250 95272
732.3353 95262 95203 95072 94857 94568 94240 93909 93604 93332 93086 92854
737.6386 92623 92384 92127 91853 91581 91342 91171 91083 91060 91059 91036
742.9419 90970 90875 90785 90728 90700 90667 90584 90425 90204 89963 89755
748.2452 89608 89512 89418 89264 89001 88614 88129 87612 87144 86798 86618
753.5485 86598 86685 86795 86840 86767 86575 86307 86033 85809 85663 85587
758.8517 85559 85556 85567 85588 85611 85621 85596 85524 85411 85280 85158
764.1550 85060 84984 84920 84862 84813 84777 84750 84707 84622 84488 84327
769.4583 84189 84113 84113 84163 84230 84293 84358 84436 84518 84564 84522
774.7616 84365 84118 83848 83621 83462 83347 83220 83036 82780 82466 82110
780.0649 81714 81268 80755 80173 79536 78862 78168 77465 76754 76041 75334
785.3682 74645 73986 73368 72792 72251 71722 71178 70593 69955 69272 68571
790.6714 67890 67258 66687 66169 65674 65166 64609 63979 63274 62508 61705
795.9747 60882 60043 59171 58242 57239 56171 55068 53974 52923 51921 50956
801.2780 50007 49075 48188 47408 46800 46418 46288 46408 46754 47294 47987
806.5813 48784 49617 50392 50994 51317 51311 51043 50726 50692 51304 52827
811.8846 55308 58531 62073 65440 68233 70249 71512 72199 72551 72773 72995
817.1879 73262 73565 73876 74173 74453 74723 74992 75254 75491 75675 75785
822.4911 75816 75782 75709 75627 75556 75506 75474 75448 75412 75355 75272
827.7944 75168 75053 74934 74810 74669 74500 74296 74068 73837 73627 73453
833.0977 73320 73235 73208 73255 73385 73582 73801 73986 74093 74114 74072
838.4010 74003 73934 73869 73801 73724 73644 73574 73526 73499 73483 73467
843.7043 73444 73415 73378 73332 73271 73188 73077 72937 72771 72589 72405
849.0076 72237 72094 71974 71866 71752 71616 71450 71251 71022 70771 70510
854.3109 70258 70039 69881 69814 69861 70036 70330 70711 71118 71485 71753
859.6141 71891 71907 71836 71722 71600 71482 71361 71221 71059 70887 70736
864.9174 70636 70591 70575 70538 70432 70236 69971 69682 69419 69214 69074
870.2207 68986 68929 68889 68856 68821 68774 68700 68581 68401 68150 67826
875.5240 67442 67020 66582 66150 65733 65335 64958 64605 64280 63980 63696
880.8273 63409 63108 62790 62472 62180 61934 61740 61580 61423 61232 60983
886.1306 60669 60307 59932 59583 59288 59053 58862 58680 58471 58209 57886
891.4338 57511 57102 56681 56267 55867 55479 55090 54682 54246 53788 53331
896.7371 52899 52509 52158 51824 51483 51117 50727 50325 49925 49531 49135
902.0404 48723 48282 47814 47333 46862 46425 46033 45678 45335 44973 44570
907.3437 44122 43649 43174 42717 42281 41854 41424 40988 40558 40151 39778
912.6470 39435 39105 38767 38412 38047 37691 37369 37094 36868 36677 36504
917.9503 36336 36167 35998 35839 35697 35580 35487 35412 35347 35280 35208
923.2535 35128 35043 34953 34858 34755 34641 34515 34379 34234 34080 33918
928.5568 33749 33582 33427 33299 33208 33161 33158 33198 33283 33423 33632
933.8601 33922 34297 34755 35293 35911 36624 37452 38411 39488 40634 41769
939.1634 42798 43640 44257 44661 44911 45089 45281 45550 45935 46447 47080
944.4667 47813 48620 49475 50353 51235 52115 52992 53874 54770 55687 56632
949.7700 57605 58605 59622 60646 61664 62664 63641 64601 65552 66507 67468
955.0732 68431 69383 70309 71200 72058 72890 73708 74516 75308 76074 76801
960.3765 77485 78126 78730 79300 79836 80336 80806 81256 81699 82143 82584
965.6798 83010 83411 83785 84142 84499 84865 85235 85590 85912 86190 86425
970.9831 86629 86813 86979 87118 87214 87250 87219 87134 87022 86919 86854
976.2864 86831 86823 86776 86631 86344 85907 85346 84718 84086 83505 83004
981.5897 82581 82209 81854 81494 81124 80759 80417 80110 79833 79576 79331
986.8929 79107 78928 78819 78797 78858 78977 79120 79250 79337 79359 79291
992.1962 79114 78814 78391 77861 77262 76648 76094 75689 75508 75553 75702
997.4995 75700 75251 74191 72645 71067 70086 70226 71639 74018 76726 79097
1002.8028 80704 81485 81657 81536 81362 81235 81151 81077 81002 80944 80918
1008.1061 80924 80937 80929 80883 80799 80692 80581 80481 80399 80330 80260
1013.4094 80171 80046 79879 79671 79427 79148 78832 78475 78082 77676 77291
1018.7126 76958 76682 76434 76154 75766 75200 74407 73361 72056 70486 68626
1024.0160 66435 63882 61018 58071 55494 53920 53989 56108 60232 65813 71948
1029.3192 77672 82268 85437 87282 88147 88414 88373 88185 87922 87620 87310
1034.6226 87022 86770 86550 86347 86154 85977 85830 85723 85650 85591 85526
1039.9258 85448 85369 85310 85283 85273 85243 85150 84962 84682 84337 83970
1045.2291 83611 83276 82958 82646 82331 82015 81703 81403 81118 80846 80584
1050.5323 80321 80053 79776 79495 79223 78973 78749 78541 78321 78064 77759
1055.8357 77417 77072 76759 76495 76272 76063 75835 75568 75257 74915 74560
1061.1389 74206 73854 73493 73102 72659 72151 71578 70950 70284 69591 68875
1066.4423 68134 67368 66579 65780 64984 64202 63441 62704 61982 61271 60579
1071.7455 59951 59492 59366 59770 60879 62771 65384 68507 71838 75059 77917
1077.0488 80266 82066 83347 84177 84631 84786 84713 84478 84140 83745 83326
1082.3521 82906 82505 82134 81802 81510 81254 81028 80827 80649 80495 80365
1087.6554 80255 80158 80065 79970 79867 79757 79642 79518 79376 79196 78952
1092.9586 78622 78191 77659 77037 76342 75589 74782 73922 73009 72051 71063
1098.2620 70071 69111 68227 67473 66911 66598 66575 66845 67370 68072 68853
1103.5652 69622 70310 70887 71352 71720 72007 72221 72360 72418 72394 72300
1108.8685 72156 71984 71800 71611 71412 71198 70966 70720 70468 70214 69956
1114.1718 69687 69399 69089 68757 68407 68036 67639 67202 66718 66188 65622
1119.4751 65036 64441 63835 63201 62518 61768 60947 60061 59119 58121 57061
1124.7783 55935 54764 53607 52558 51736 51256 51208 51643 52573 53972 55777
1130.0817 57895 60200 62551 64811 66875 68683 70220 71503 72557 73400 74048
1135.3849 74517 74835 75040 75173 75264 75329 75368 75377 75353 75308 75254
1140.6882 75203 75157 75106 75039 74949 74842 74732 74631 74541 74452 74351
1145.9915 74233 74100 73959 73807 73633 73419 73159 72864 72561 72280 72034
1151.2948 71813 71592 71346 71059 70736 70392 70046 69712 69398 69105 68829
1156.5980 68562 68297 68027 67745 67455 67160 66867 66578 66292 66002 65701
1161.9014 65385 65052 64703 64337 63953 63545 63109 62641 62145 61631 61118
1167.2046 60635 60214 59882 59651 59507 59413 59313 59153 58894 58519 58028
1172.5079 57430 56730 55931 55033 54043 52973 51844 50685 49529 48422 47420
1177.8112 46590 45996 45690 45693 45987 46512 47171 47854 48457 48908 49167
1183.1145 49230 49118 48871 48542 48203 47944 47872 48092 48691 49713 51149
1188.4177 52935 54965 57114 59253 61274 63098 64684 66023 67129 68023 68727
1193.7211 69255 69622 69851 69973 70023 70027 70001 69945 69855 69729 69571
1199.0243 69393 69204 69009 68808 68596 68370 68131 67881 67628 67376 67132
1204.3276 66900 66683 66477 66277 66074 65858 65625 65373 65110 64847 64596
1209.6309 64362 64146 63941 63742 63551 63379 63245 63167 63156 63206 63300
1214.9342 63415 63528 63623 63696 63741 63759 63747 63703 63631 63539 63438
1220.2374 63334 63231 63124 63011 62894 62777 62670 62576 62491 62402 62298
1225.5408 62169 62016 61847 61673 61501 61333 61161 60977 60772 60542 60290
1230.8440 60022 59749 59476 59205 58933 58654 58363 58061 57748 57428 57103
1236.1473 56775 56446 56120 55801 55492 55193 54900 54607 54310 54007 53703
1241.4506 53404 53113 52830 52551 52272 51986 51692 51389 51079 50763 50445
1246.7539 50127 49813 49503 49198 48894 48584 48262 47921 47559 47179 46792
1252.0571 46408 46034 45671 45315 44962 44611 44266 43932 43611 43295 42976
1257.3605 42644 42297 41938 41573 41208 40841 40470 40093 39708 39316 38917
1262.6637 38505 38072 37608 37108 36568 35992 35386 34754 34105 33445 32781
1267.9670 32116 31455 30798 30146 29502 28874 28276 27725 27239 26828 26492
1273.2703 26228 26028 25887 25803 25770 25782 25826 25888 25951 25998 26014
1278.5736 25986 25904 25765 25570 25324 25031 24699 24335 23948 23551 23157
1283.8768 22778 22423 22094 21789 21504 21242 21013 20834 20721 20688 20742
1289.1802 20889 21132 21477 21929 22489 23156 23924 24792 25762 26837 28021
1294.4834 29315 30715 32209 33778 35394 37026 38645 40235 41789 43306 44780
1299.7867 46203 47561 48842 50041 51164 52226 53243 54239 55234 56249 57304
1305.0900 58414 59591 60834 62131 63449 64739 65934 66964 67767 68302 68553
1310.3933 68525 68237 67711 66974 66055 64990 63819 62582 61307 60004 58671
1315.6965 57294 55863 54364 52781 51091 49274 47325 45275 43194 41177 39319
1320.9999 37690 36341 35309 34620 34293 34337 34740 35479 36519 37821 39346
1326.3031 41060 42938 44963 47128 49436 51893 54501 57251 60113 63036 65964
1331.6064 68836 71604 74219 76638 78824 80760 82454 83932 85230 86377 87389
1336.9097 88272 89027 89661 90179 90590 90910 91158 91363 91548 91725 91893
1342.2130 92040 92154 92227 92259 92255 92225 92175 92107 92020 91912 91781
1347.5162 91624 91440 91227 90988 90728 90458 90188 89929 89691 89485 89319
1352.8196 89198 89125 89097 89110 89152 89205 89249 89261 89231 89155 89043
1358.1228 88911 88773 88637 88501 88360 88201 88016 87797 87547 87282 87033
1363.4261 86829 86682 86580 86500 86420 86323 86201 86053 85885 85712 85552
1368.7294 85422 85328 85258 85192 85105 84983 84821 84617 84366 84060 83693
1374.0327 83279 82855 82462 82115 81806 81509 81208 80893 80572 80259 79965
1379.3359 79693 79434 79178 78919 78657 78400 78156 77927 77709 77492 77266
1384.6393 77024 76766 76487 76183 75852 75501 75157 74848 74582 74342 74103
1389.9425 73839 73534 73185 72806 72416 72022 71619 71185 70693 70123 69493
1395.2458 68856 68261 67721 67217 66713 66172 65568 64911 64256 63669 63172
1400.5491 62739 62327 61906 61467 61018 60564 60102 59617 59092 58534 57969
1405.8524 57421 56885 56335 55737 55078 54367 53628 52887 52156 51432 50712
1411.1556 49995 49288 48593 47911 47244 46598 45977 45384 44816 44272 43759
1416.4590 43293 42888 42550 42277 42073 41955 41942 42019 42148 42303 42482
1421.7622 42700 42984 43368 43874 44485 45145 45795 46417 47032 47673 48366
1427.0656 49113 49908 50758 51707 52832 54188 55736 57342 58884 60351 61835
1432.3688 63436 65176 66954 68612 70051 71287 72440 73682 75124 76627 77877
1437.6721 78751 79361 79842 80257 80608 80867 81007 81019 80914 80708 80404
1442.9753 79990 79443 78747 77911 76961 75932 74825 73590 72124 70322 68181
1448.2787 65846 63493 61171 58779 56159 53217 50039 46975 44568 43300 43367
1453.5819 44676 46991 50083 53814 58157 63120 68487 73530 77366 79805 81312
1458.8853 82351 83154 83797 84308 84710 85030 85295 85525 85731 85926 86136
1464.1885 86408 86787 87268 87791 88301 88782 89237 89662 90038 90339 90549
1469.4918 90677 90735 90730 90642 90429 90059 89595 89205 88993 88911 88866
1474.7950 88788 88645 88442 88232 88080 88015 88009 88012 87983 87901 87760
1480.0984 87572 87357 87134 86920 86720 86533 86352 86169 85978 85773 85552
1485.4016 85301 85001 84632 84204 83761 83359 83013 82685 82303 81812 81241
1490.7050 80675 80152 79611 78968 78175 77239 76206 75128 74040 72978 72029
1496.0082 71368 71167 71488 72301 73563 75190 76959 78550 79738 80514 81005
1501.3115 81350 81621 81830 81960 82008 81993 81935 81833 81651 81314 80789
1506.6147 80249 79950 79874 79880 79890 79889 79874 79845 79793 79712 79597
1511.9181 79457 79303 79145 78983 78809 78618 78406 78169 77899 77593 77272
1517.2213 76982 76747 76550 76358 76139 75867 75523 75121 74748 74523 74441
1522.5247 74404 74355 74287 74209 74124 74037 73946 73861 73791 73747 73733
1527.8279 73747 73778 73806 73815 73795 73746 73677 73597 73511 73422 73329
1533.1312 73239 73165 73119 73090 73058 73003 72917 72796 72643 72455 72229
1538.4344 71956 71655 71406 71292 71274 71271 71244 71195 71134 71067 70992
1543.7378 70903 70800 70690 70585 70491 70401 70299 70176 70026 69853 69669
1549.0410 69493 69347 69239 69151 69059 68946 68814 68665 68507 68347 68196
1554.3444 68064 67944 67822 67682 67510 67290 66993 66590 66107 65786 65888
1559.6476 66168 66338 66370 66309 66187 66022 65820 65588 65332 65064 64799
1564.9509 64547 64305 64064 63815 63554 63282 62995 62688 62360 62028 61730
1570.2542 61480 61250 61003 60707 60344 59920 59459 58998 58551 58099 57583
1575.5575 56931 56156 55417 54841 54388 53963 53509 53008 52468 51914 51372
1580.8607 50864 50413 50048 49816 49772 49972 50474 51331 52589 54265 56325
1586.1641 58672 61154 63593 65818 67693 69134 70114 70648 70785 70594 70154
1591.4674 69542 68819 68024 67172 66262 65290 64259 63180 62065 60917 59737
1596.7706 58530 57316 56128 55008 53999 53145 52489 52074 51924 52047 52430
1602.0740 53048 53869 54847 55918 57019 58104 59161 60202 61240 62269 63262
1607.3772 64183 65017 65769 66452 67068 67594 68006 68292 68465 68543 68534
1612.6805 68437 68251 67987 67668 67306 66884 66339 65599 64717 63948 63501
1617.9838 63360 63437 63678 64048 64497 64940 65292 65506 65584 65566 65512
1623.2871 65480 65486 65499 65483 65423 65322 65189 65039 64890 64752 64617
1628.5903 64463 64270 64036 63764 63461 63136 62796 62454 62118 61789 61456
1633.8937 61099 60691 60231 59782 59442 59214 59018 58795 58529 58223 57886
1639.1969 57524 57140 56735 56313 55877 55430 54973 54509 54043 53582 53128
1644.5002 52669 52188 51665 51107 50563 50084 49661 49236 48771 48270 47754
1649.8035 47237 46723 46200 45651 45054 44392 43723 43247 42977 42697 42348
1655.1068 41951 41524 41070 40590 40089 39574 39054 38532 38009 37489 36980
1660.4100 36489 36010 35519 34982 34385 33766 33190 32681 32206 31717 31184
1665.7134 30613 30037 29490 28976 28465 27904 27270 26615 26041 25586 25192
1671.0166 24793 24375 23976 23638 23372 23154 22940 22690 22399 22135 21979
1676.3199 21929 21930 21947 21970 22012 22095 22244 22474 22777 23117 23453
1681.6232 23755 24011 24237 24529 25169 26512 28233 29566 30454 31170 31899
1686.9265 32728 33693 34798 36023 37330 38676 40027 41359 42657 43912 45116
1692.2297 46250 47289 48212 49023 49768 50577 51672 53202 54862 56109 56837
1697.5331 57246 57511 57730 58003 58544 59672 61150 62183 62691 62986 63266
1702.8363 63622 64099 64699 65387 66118 66893 67763 68759 69829 70868 71806
1708.1396 72643 73425 74196 74974 75737 76443 77064 77602 78073 78497 78894
1713.4429 79294 79738 80246 80787 81292 81712 82054 82371 82760 83295 83925
1718.7462 84521 85039 85507 85963 86428 86904 87388 87880 88387 88911 89443
1724.0494 89961 90445 90892 91309 91706 92080 92417 92702 92923 93087 93209
1729.3528 93318 93447 93611 93806 94009 94197 94340 94382 94235 93855 93440
1734.6560 93274 93361 93562 93776 93960 94094 94165 94159 94055 93847 93574
1739.9594 93327 93177 93118 93094 93042 92918 92705 92436 92172 91964 91812
1745.2626 91690 91565 91414 91229 91013 90790 90593 90449 90362 90321 90306
1750.5659 90308 90330 90384 90474 90591 90722 90851 90968 91065 91135 91179
1755.8691 91201 91212 91223 91238 91254 91268 91279 91287 91287 91268 91208
1761.1725 91095 90940 90787 90675 90609 90565 90520 90454 90364 90254 90133
1766.4757 90005 89872 89739 89615 89512 89430 89355 89273 89173 89047 88894
1771.7791 88731 88587 88477 88384 88289 88180 88057 87927 87805 87703 87624
1777.0823 87555 87481 87390 87275 87139 86990 86840 86704 86588 86492 86406
1782.3856 86319 86219 86097 85953 85794 85636 85494 85376 85281 85204 85141
1787.6888 85088 85042 84995 84942 84882 84819 84760 84717 84702 84727 84788
1792.9922 84865 84939 85000 85050 85097 85152 85223 85307 85393 85471 85532
1798.2954 85574 85601 85619 85639 85671 85722 85792 85875 85961 86038 86102
1803.5988 86159 86219 86291 86373 86453 86514 86542 86535 86506 86472 86449
1808.9020 86441 86448 86466 86491 86520 86551 86582 86610 86634 86653 86670
1814.2053 86685 86695 86696 86683 86653 86607 86554 86501 86456 86416 86374
1819.5085 86322 86263 86204 86161 86141 86137 86132 86105 86050 85985 85944
1824.8119 85968 86068 86206 86327 86398 86415 86395 86364 86352 86394 86506
1830.1151 86664 86822 86945 87030 87088 87134 87184 87245 87311 87369 87402
1835.4185 87408 87396 87388 87404 87448 87507 87558 87581 87572 87538 87493
1840.7217 87451 87418 87398 87388 87387 87390 87394 87398 87402 87413 87434
1846.0250 87464 87500 87534 87561 87574 87574 87564 87549 87535 87527 87532
1851.3282 87554 87591 87633 87667 87681 87666 87622 87554 87471 87382 87297
1856.6316 87222 87161 87111 87074 87048 87036 87033 87030 87014 86974 86911
1861.9348 86836 86767 86716 86685 86669 86659 86650 86634 86601 86530 86407
1867.2382 86235 86048 85907 85873 85956 86098 86221 86282 86280 86241 86190
1872.5414 86144 86100 86047 85979 85905 85839 85797 85785 85791 85801 85800
1877.8447 85781 85746 85704 85665 85636 85624 85630 85651 85675 85687 85672
1883.1479 85627 85564 85502 85461 85451 85462 85473 85460 85414 85337 85246
1888.4513 85161 85097 85060 85039 85020 84992 84952 84898 84826 84736 84634
1893.7545 84537 84474 84467 84518 84605 84695 84765 84817 84863 84913 84956
1899.0579 84964 84911 84797 84651 84521 84446 84432 84456 84480 84474 84431
1904.3611 84358 84275 84194 84127 84078 84048 84027 83990 83906 83756 83549
1909.6644 83331 83162 83081 83080 83109 83098 83000 82813 82588 82399 82306
1914.9677 82319 82401 82492 82547 82552 82534 82542 82610 82730 82865 82982
1920.2710 83064 83107 83117 83108 83101 83126 83202 83327 83479 83632 83774
1925.5742 83911 84058 84223 84388 84512 84553 84490 84344 84166 84010 83908
1930.8776 83864 83861 83876 83900 83925 83946 83954 83946 83932 83938 83996
1936.1808 84123 84311 84531 84745 84925 85065 85177 85279 85387 85503 85616
1941.4841 85703 85735 85693 85595 85487 85428 85455 85580 85778 85995 86163
1946.7874 86232 86196 86083 85944 85829 85775 85800 85891 86004 86082 86075
1952.0907 85975 85825 85696 85651 85703 85803 85872 85842 85703 85494 85285
1957.3939 85142 85111 85209 85410 85651 85849 85941 85930 85894 85938 86123
1962.6973 86405 86659 86737 86565 86174 85668 85151 84683 84286 83977 83791
1968.0005 83759 83861 84014 84117 84106 84012 83953 84080 84481 85131 85900
1973.3038 86618 87145 87411 87405 87153 86692 86082 85412 84806 84386 84222
1978.6071 84306 84553 84846 85088 85224 85250 85196 85114 85058 85066 85139
1983.9104 85244 85331 85363 85335 85281 85249 85278 85373 85497 85592 85611
1989.2136 85546 85436 85349 85339 85413 85509 85526 85395 85136 84844 84624
1994.5170 84534 84555 84619 84659 84669 84710 84876 85226 85742 86328 86850
1999.8202 87195 87319 87248 87056 86830 86643 86537 86527 86595 86688 86727
2005.1235 86618 86300 85796 85236 84817 84709 84951 85428 85930 86274 86404
2010.4268 86403 86429 86598 86903 87210 87336 87162 86715 86161 85717 85535
2015.7301 85618 85822 85943 85848 85577 85319 85276 85536 86009 86483 86738
2021.0333 86674 86356 85965 85692 85643 85793 86032 86229 86308 86259 86111
2026.3367 85879 85542 85070 84483 83896 83496 83459 83856 84596 85464 86211
2031.6399 86645 86685 86348 85723 84951 84209 83685 83519 83742 84249 84837
2036.9432 85306 85554 85603 85540 85432 85276 85032 84693 84339 84117 84153
2042.2465 84475 84997 85565 86034 86334 86481 86536 86550 86524 86424 86212
2047.5498 85890 85505 85136 84854 84695 84654 84699 84795 84922 85070 85235
2052.8530 85406 85565 85690 85765 85785 85748 85658 85518 85338 85136 84935
2058.1563 84751 84586 84431 84288 84187 84178 84299 84537 84816 85026 85079
2063.4597 84954 84714 84464 84296 84238 84259 84306 84340 84350 84342 84311
2068.7629 84238 84104 83916 83720 83582 83551 83617 83714 83742 83628 83370
2074.0662 83045 82776 82662 82729 82918 83120 83242 83246 83159 83034 82909
2079.3694 82783 82634 82458 82285 82172 82157 82231 82332 82376 82310 82138
2084.6729 81911 81697 81537 81441 81390 81364 81355 81362 81389 81427 81465
2089.9761 81489 81493 81481 81463 81452 81463 81511 81606 81747 81917 82093
2095.2793 82251 82386 82509 82639 82787 82944 83081 83160 83152 83047 82870
2100.5825 82672 82522 82481 82568 82752 82955 83091 83106 83010 82862 82735
2105.8860 82680 82701 82772 82863 82963 83075 83201 83330 83439 83504 83512
2111.1892 83463 83364 83225 83063 82908 82800 82774 82833 82948 83063 83129
2116.4924 83128 83072 82995 82927 82879 82853 82846 82865 82923 83026 83160
2121.7957 83296 83401 83455 83456 83419 83358 83283 83193 83095 83003 82938
2127.0991 82912 82922 82948 82971 82987 83007 83039 83073 83080 83033 82942
2132.4023 82861 82874 83042 83360 83744 84068 84233 84218 84089 83960 83924
2137.7056 84004 84150 84271 84293 84208 84068 83951 83904 83911 83906 83825
2143.0088 83660 83471 83352 83366 83502 83685 83832 83909 83948 84008 84117
2148.3123 84240 84298 84232 84041 83787 83538 83327 83136 82934 82725 82565
2153.6155 82527 82640 82853 83045 83088 82921 82586 82196 81870 81683 81638
2158.9187 81676 81708 81666 81531 81333 81138 81022 81046 81239 81577 81988
2164.2219 82366 82605 82636 82455 82125 81745 81409 81168 81026 80954 80922
2169.5254 80912 80925 80964 81030 81115 81208 81299 81378 81435 81465 81468
2174.8286 81459 81458 81483 81535 81606 81687 81770 81847 81900 81900 81828
2180.1318 81699 81567 81504 81556 81706 81867 81929 81817 81545 81213 80957
2185.4351 80869 80950 81102 81186 81099 80843 80525 80296 80268 80466 80826
2190.7385 81240 81603 81848 81950 81914 81766 81555 81340 81171 81060 80977
2196.0417 80880 80749 80614 80536 80571 80721 80932 81123 81227 81223 81139
2201.3450 81027 80942 80926 80997 81145 81341 81537 81692 81776 81779 81708
2206.6482 81576 81400 81198 80988 80783 80586 80397 80219 80073 79994 80015
2211.9517 80143 80350 80581 80780 80911 80970 80977 80958 80928 80894 80843
2217.2549 80757 80620 80435 80240 80103 80092 80237 80508 80819 81057 81132
2222.5581 81014 80740 80402 80112 79969 80023 80249 80558 80826 80955 80922
2227.8613 80782 80622 80497 80395 80255 80031 79745 79488 79369 79439 79651
2233.1648 79878 79988 79914 79687 79400 79155 79013 78980 79036 79153 79313
2238.4680 79497 79678 79820 79887 79859 79743 79562 79350 79140 78969 78873
2243.7712 78880 78996 79187 79392 79542 79592 79539 79419 79286 79184 79138
2249.0745 79153 79226 79346 79495 79642 79751 79789 79743 79627 79475 79333
2254.3779 79235 79198 79213 79257 79298 79312 79281 79201 79076 78926 78782
2259.6812 78682 78660 78731 78877 79054 79202 79270 79238 79120 78958 78803
2264.9844 78700 78672 78714 78799 78885 78936 78937 78897 78841 78792 78758
2270.2876 78728 78688 78638 78596 78585 78617 78677 78730 78740 78690 78587
2275.5911 78457 78325 78210 78118 78059 78041 78068 78135 78218 78284 78302
2280.8943 78261 78170 78056 77947 77861 77802 77761 77728 77696 77668 77645
2286.1975 77630 77620 77607 77588 77563 77539 77526 77529 77546 77566 77574
2291.5007 77559 77520 77467 77417 77384 77373 77378 77383 77373 77343 77298
2296.8042 77252 77217 77196 77187 77180 77170 77159 77156 77167 77195 77231
2302.1074 77262 77274 77259 77216 77153 77088 77037 77012 77015 77035 77057
2307.4106 77066 77055 77026 76985 76936 76881 76823 76770 76733 76719 76724
2312.7139 76731 76722 76687 76630 76566 76509 76464 76425 76384 76335 76282
2318.0173 76235 76204 76192 76196 76209 76220 76220 76203 76163 76100 76016
2323.3206 75918 75816 75719 75635 75563 75497 75433 75371 75321 75301 75326
2328.6238 75398 75506 75629 75749 75853 75935 75982 75978 75912 75790 75640
2333.9270 75502 75407 75367 75380 75430 75498 75566 75617 75635 75613 75552
2339.2305 75462 75358 75252 75148 75048 74958 74891 74860 74873 74926 75008
2344.5337 75106 75209 75302 75359 75353 75277 75146 74989 74840 74721 74652
2349.8369 74640 74680 74749 74814 74850 74858 74861 74891 74969 75086 75210
2355.1401 75292 75286 75172 74968 74734 74544 74453 74469 74548 74624 74650
2360.4436 74623 74579 74555 74568 74601 74623 74607 74551 74473 74398 74343
2365.7468 74316 74309 74311 74310 74301 74291 74288 74296 74307 74308 74289
2371.0500 74254 74219 74204 74217 74251 74287 74313 74326 74336 74353 74375
2376.3533 74390 74377 74329 74251 74161 74082 74030 74012 74026 74065 74119
2381.6567 74175 74218 74235 74218 74172 74113 74059 74025 74010 74004 73993
2386.9600 73967 73925 73875 73825 73779 73739 73706 73683 73676 73686 73707
2392.2632 73729 73738 73723 73681 73616 73539 73462 73398 73354 73331 73323
2397.5664 73321 73314 73299 73277 73252 73230 73214 73207 73204 73200 73190
2402.8699 73166 73129 73083 73042 73019 73023 73048 73077 73089 73068 73015
2408.1731 72941 72866 72804 72763 72737 72715 72689 72655 72617 72581 72551
2413.4763 72528 72506 72479 72447 72414 72388 72374 72372 72374 72371 72360
2418.7795 72345 72335 72341 72365 72400 72428 72427 72385 72304 72201 72102
2424.0830 72031 72000 72006 72032 72060 72074 72070 72051 72022 71989 71955
2429.3862 71924 71898 71877 71860 71841 71813 71773 71728 71689 71669 71672
2434.6895 71692 71717 71733 71732 71714 71686 71654 71621 71585 71544 71498
2439.9927 71449 71400 71358 71328 71313 71318 71339 71364 71376 71357 71300
2445.2961 71211 71107 71009 70932 70881 70849 70831 70819 70809 70796 70777
2450.5994 70747 70705 70656 70606 70561 70526 70501 70484 70472 70456 70428
2455.9026 70382 70318 70241 70162 70089 70025 69970 69923 69884 69861 69859
2461.2058 69878 69907 69931 69934 69907 69847 69758 69651 69538 69434 69352
2466.5093 69300 69276 69268 69261 69243 69210 69165 69116 69070 69030 68996
2471.8125 68969 68948 68934 68925 68912 68889 68851 68799 68743 68693 68656
2477.1157 68633 68617 68599 68577 68553 68537 68533 68540 68549 68549 68530
2482.4189 68488 68429 68363 68304 68262 68239 68231 68231 68231 68225 68208
2487.7224 68173 68115 68034 67940 67852 67793 67775 67789 67815 67824 67797
2493.0256 67735 67651 67563 67481 67407 67338 67273 67217 67180 67167 67174
2498.3289 67185 67181 67145 67077 66988 66901 66834 66797 66786 66784 66770
2503.6321 66733 66674 66604 66541 66498 66479 66481 66492 66502 66506 66502
2508.9355 66491 66474 66451 66418 66374 66318 66256 66193 66134 66078 66023
2514.2388 65960 65887 65805 65726 65661 65619 65604 65612 65634 65657 65665
2519.5420 65647 65598 65521 65431 65346 65279 65235 65208 65188 65169 65148
2524.8452 65126 65098 65052 64973 64858 64718 64582 64481 64433 64436 64466
2530.1487 64493 64498 64473 64423 64359 64288 64214 64139 64070 64012 63964
2535.4519 63924 63885 63841 63794 63744 63696 63649 63605 63566 63539 63529
2540.7551 63532 63535 63520 63473 63394 63297 63201 63125 63079 63062 63070
2546.0583 63092 63116 63132 63125 63091 63033 62964 62906 62872 62866 62878
2551.3618 62894 62905 62912 62922 62942 62971 62999 63018 63024 63024 63032
2556.6650 63055 63096 63146 63194 63235 63271 63308 63350 63400 63452 63501
2561.9683 63550 63601 63665 63746 63845 63959 64075 64185 64281 64363 64437
2567.2715 64511 64592 64687 64793 64910 65034 65165 65302 65442 65585 65730
2572.5750 65884 66052 66241 66452 66677 66901 67109 67294 67457 67611 67766
2577.8782 67931 68105 68282 68453 68614 68769 68923 69083 69252 69426 69592
2583.1814 69731 69828 69877 69884 69870 69861 69878 69924 69991 70059 70109
2588.4849 70131 70122 70087 70031 69960 69880 69795 69714 69638 69568 69496
2593.7881 69412 69314 69203 69088 68980 68884 68799 68718 68635 68547 68456
2599.0913 68368 68288 68219 68158 68101 68046 67995 67953 67923 67908 67901
2604.3945 67899 67897 67894 67897 67913 67949 68003 68073 68150 68228 68304
2609.6980 68379 68457 68545 68648 68767 68900 69039 69173 69294 69396 69483
2615.0012 69559 69632 69705 69777 69847 69912 69969 70015 70048 70064 70060
2620.3044 70037 69996 69946 69893 69848 69815 69798 69792 69791 69784 69766
2625.6077 69731 69679 69613 69533 69442 69339 69227 69111 69000 68900 68818
2630.9111 68756 68711 68675 68641 68601 68549 68484 68404 68310 68207 68105
2636.2144 68018 67959 67932 67931 67940 67939 67916 67870 67810 67751 67706
2641.5176 67680 67670 67669 67668 67660 67640 67608 67570 67534 67511 67510
2646.8208 67533 67574 67621 67659 67675 67666 67636 67597 67560 67536 67526
2652.1243 67525 67524 67512 67486 67446 67400 67354 67312 67276 67242 67206
2657.4275 67166 67126 67090 67063 67048 67044 67048 67055 67060 67060 67052
2662.7307 67033 67004 66971 66945 66935 66949 66984 67030 67074 67106 67122
2668.0339 67123 67115 67101 67086 67073 67068 67076 67104 67149 67204 67257
2673.3374 67301 67336 67369 67410 67462 67522 67581 67632 67674 67713 67758
2678.6406 67817 67892 67977 68066 68152 68228 68295 68358 68421 68493 68579
2683.9438 68678 68786 68897 69007 69114 69223 69339 69464 69598 69738 69879
2689.2471 70021 70166 70317 70477 70644 70813 70980 71139 71289 71432 71573
2694.5505 71719 71878 72055 72253 72465 72683 72892 73085 73257 73412 73559
2699.8538 73705 73853 74001 74141 74267 74375 74470 74556 74643 74734 74827
2705.1570 74917 74995 75053 75085 75093 75082 75062 75045 75038 75043 75054
2710.4602 75056 75037 74992 74924 74848 74775 74712 74655 74596 74526 74444
2715.7637 74357 74273 74197 74130 74065 73995 73917 73833 73753 73684 73632
2721.0669 73598 73573 73545 73506 73456 73405 73366 73350 73354 73370 73382
2726.3701 73381 73368 73351 73340 73342 73357 73385 73426 73483 73557 73645
2731.6733 73736 73819 73885 73932 73964 73991 74024 74069 74126 74191 74256
2736.9768 74314 74361 74396 74422 74441 74453 74458 74453 74437 74416 74395
2742.2800 74379 74369 74359 74342 74314 74273 74224 74168 74105 74031 73946
2747.5833 73855 73769 73697 73641 73596 73550 73496 73436 73377 73328 73294
2752.8865 73269 73245 73213 73169 73120 73074 73041 73021 73010 72999 72975
2758.1899 72934 72878 72814 72753 72703 72666 72640 72619 72595 72566 72532
2763.4932 72495 72460 72431 72410 72397 72393 72395 72399 72401 72395 72378
2768.7964 72351 72316 72278 72242 72208 72173 72133 72085 72031 71976 71921
2774.0996 71868 71811 71745 71663 71567 71463 71365 71283 71222 71180 71148
2779.4031 71117 71083 71048 71018 71000 70998 71010 71032 71056 71072 71076
2784.7063 71063 71035 70996 70953 70909 70869 70832 70795 70756 70715 70671
2790.0095 70622 70568 70503 70425 70334 70233 70132 70038 69962 69904 69863
2795.3127 69831 69795 69744 69671 69578 69474 69371 69280 69207 69149 69098
2800.6162 69046 68990 68927 68864 68802 68746 68696 68651 68607 68560 68507
2805.9194 68443 68369 68285 68192 68095 68002 67925 67871 67845 67839 67843
2811.2227 67841 67824 67791 67746 67692 67637 67584 67539 67509 67493 67489
2816.5259 67485 67472 67445 67411 67378 67356 67342 67329 67307 67272 67232
2821.8293 67196 67172 67158 67149 67137 67124 67115 67123 67153 67205 67268
2827.1326 67324 67363 67380 67382 67378 67379 67389 67406 67426 67449 67476
2832.4358 67511 67552 67593 67627 67651 67669 67697 67747 67825 67924 68028
2837.7390 68119 68186 68233 68271 68313 68368 68440 68527 68629 68742 68863
2843.0425 68986 69103 69207 69296 69373 69441 69507 69573 69640 69709 69784
2848.3457 69869 69965 70073 70187 70302 70413 70521 70628 70737 70849 70965
2853.6489 71082 71197 71308 71413 71511 71601 71683 71757 71824 71882 71930
2858.9521 71961 71972 71962 71935 71903 71874 71858 71852 71851 71845 71824
2864.2556 71784 71726 71658 71586 71520 71463 71419 71386 71365 71355 71353
2869.5588 71356 71360 71360 71351 71335 71315 71299 71294 71306 71334 71369
2874.8621 71403 71425 71433 71434 71436 71451 71485 71538 71604 71673 71735
2880.1653 71780 71805 71813 71814 71819 71838 71870 71905 71935 71956 71973
2885.4688 71999 72045 72115 72204 72305 72411 72517 72622 72724 72820 72907
2890.7720 72985 73058 73134 73215 73305 73402 73505 73612 73727 73848 73977
2896.0752 74109 74243 74378 74514 74653 74792 74925 75043 75135 75194 75217
2901.3784 75208 75174 75125 75073 75029 75003 74994 74996 74998 74991 74971
2906.6819 74939 74902 74862 74820 74777 74736 74703 74691 74705 74747 74808
2911.9851 74873 74928 74963 74976 74972 74963 74964 74984 75029 75093 75167
2917.2883 75239 75303 75357 75407 75458 75512 75566 75615 75657 75694 75729
2922.5916 75770 75819 75873 75924 75963 75986 75991 75982 75968 75955 75948
2927.8950 75947 75945 75937 75919 75893 75868 75850 75843 75840 75830 75803
2933.1982 75756 75695 75629 75563 75493 75413 75317 75207 75098 75007 74946
2938.5015 74915 74903 74891 74865 74812 74731 74626 74502 74372 74245 74135
2943.8047 74049 73990 73953 73931 73913 73893 73869 73845 73826 73818 73824
2949.1082 73848 73889 73950 74025 74106 74180 74232 74259 74265 74265 74277
2954.4114 74308 74355 74405 74442 74456 74450 74434 74421 74419 74428 74443
2959.7146 74455 74457 74444 74412 74364 74305 74244 74190 74146 74117 74099
2965.0178 74090 74089 74093 74097 74095 74080 74048 74002 73947 73889 73832
2970.3213 73779 73733 73703 73697 73723 73779 73854 73930 73990 74023 74024
2975.6245 73993 73938 73864 73786 73716 73666 73645 73655 73692 73749 73820
2980.9277 73892 73952 73984 73979 73939 73884 73844 73847 73906 74009 74131
2986.2310 74241 74319 74364 74386 74401 74418 74440 74459 74469 74462 74438
2991.5344 74403 74365 74335 74317 74311 74311 74309 74300 74285 74268 74255
2996.8376 74247 74239 74225 74199 74161 74118 74084 74072 74090 74140 74216
3002.1409 74302 74386 74455 74506 74540 74564 74587 74613 74642 74670 74695
3007.4441 74715 74733 74755 74785 74826 74880 74944 75012 75081 75146 75203
3012.7476 75250 75289 75322 75352 75379 75404 75428 75454 75486 75527 75577
3018.0508 75634 75692 75746 75793 75832 75866 75900 75940 75994 76064 76153
3023.3540 76251 76350 76437 76506 76560 76606 76655 76710 76772 76834 76893
3028.6572 76945 76994 77040 77088 77138 77191 77247 77307 77371 77438 77508
3033.9607 77581 77659 77740 77824 77905 77980 78050 78123 78207 78309 78423
3039.2639 78539 78638 78711 78756 78784 78808 78838 78875 78914 78948 78973
3044.5671 78988 78993 78989 78978 78963 78950 78950 78973 79020 79084 79142
3049.8704 79172 79157 79095 79001 78900 78816 78765 78747 78750 78754 78740
3055.1738 78696 78618 78513 78390 78258 78123 77980 77826 77657 77480 77307
3060.4771 77152 77030 76946 76901 76888 76898 76918 76936 76937 76912 76859
3065.7803 76782 76683 76566 76428 76263 76070 75854 75632 75424 75252 75130
3071.0835 75068 75075 75164 75355 75667 76117 76699 77389 78143 78911 79645
3076.3870 80314 80901 81400 81813 82144 82398 82586 82720 82820 82905 82993
3081.6902 83096 83216 83342 83457 83543 83590 83602 83599 83607 83646 83721
3086.9934 83820 83919 83993 84027 84024 83998 83971 83965 83992 84048 84123
3092.2966 84197 84257 84296 84317 84334 84360 84404 84468 84547 84637 84738
3097.6001 84851 84979 85116 85248 85358 85429 85458 85455 85441 85436 85457
3102.9033 85505 85574 85653 85733 85808 85881 85954 86031 86114 86203 86291
3108.2065 86372 86432 86467 86477 86474 86479 86511 86576 86670 86775 86871
3113.5098 86947 87002 87041 87071 87094 87115 87136 87163 87202 87254 87316
3118.8132 87379 87437 87485 87525 87557 87586 87614 87645 87685 87739 87806
3124.1165 87884 87965 88046 88128 88212 88298 88379 88441 88473 88473 88451
3129.4197 88425 88415 88432 88479 88552 88644 88746 88850 88945 89023 89079
3134.7229 89120 89162 89223 89310 89411 89502 89554 89554 89509 89445 89392
3140.0264 89372 89388 89432 89491 89553 89617 89683 89751 89820 89887 89948
3145.3296 90004 90058 90112 90171 90233 90295 90355 90406 90442 90459 90452
3150.6328 90425 90384 90344 90320 90324 90364 90437 90539 90655 90768 90860
3155.9360 90917 90938 90934 90924 90926 90944 90973 90999 91011 91010 91004
3161.2395 91004 91016 91037 91066 91098 91132 91164 91191 91210 91225 91241
3166.5427 91267 91306 91354 91407 91462 91524 91599 91686 91777 91855 91908
3171.8459 91939 91963 91998 92048 92106 92152 92175 92175 92166 92163 92170
3177.1492 92181 92185 92180 92177 92193 92239 92311 92392 92458 92493 92494
3182.4526 92471 92444 92430 92441 92478 92534 92600 92666 92722 92765 92794
3187.7559 92811 92820 92828 92843 92870 92905 92943 92973 92993 93004 93018
3193.0591 93044 93082 93125 93159 93174 93172 93162 93163 93188 93241 93312
3198.3623 93386 93445 93479 93490 93485 93472 93456 93438 93419 93401 93392
3203.6658 93398 93420 93454 93490 93518 93537 93552 93572 93605 93651 93704
3208.9690 93759 93807 93846 93876 93903 93932 93967 94011 94059 94103 94131
3214.2722 94141 94137 94130 94132 94145 94165 94180 94183 94175 94166 94170
3219.5754 94193 94235 94285 94331 94368 94397 94426 94464 94514 94569 94619
3224.8789 94653 94665 94658 94642 94634 94648 94694 94768 94858 94942 94997
3230.1821 95009 94978 94920 94857 94807 94779 94772 94776 94787 94803 94827
3235.4854 94863 94909 94964 95019 95072 95118 95154 95177 95186 95180 95166
3240.7886 95156 95167 95212 95295 95406 95518 95605 95645 95634 95585 95516
3246.0920 95441 95368 95301 95252 95234 95259 95325 95414 95498 95560 95598
3251.3953 95626 95663 95716 95778 95832 95863 95867 95853 95837 95832 95846
3256.6985 95878 95923 95973 96023 96064 96094 96110 96118 96126 96145 96179
3262.0017 96225 96268 96291 96284 96250 96208 96180 96182 96215 96269 96327
3267.3052 96383 96434 96483 96525 96549 96542 96499 96428 96350 96289 96264
3272.6084 96285 96348 96435 96524 96592 96626 96626 96603 96575 96557 96555
3277.9116 96563 96572 96576 96575 96574 96575 96577 96575 96565 96547 96530
3283.2148 96526 96539 96568 96603 96636 96664 96693 96727 96768 96810 96844
3288.5183 96864 96872 96877 96888 96906 96925 96932 96917 96885 96850 96835
3293.8215 96855 96909 96976 97027 97038 97001 96932 96860 96812 96801 96827
3299.1248 96880 96950 97029 97112 97187 97244 97275 97281 97269 97246 97220
3304.4280 97190 97157 97119 97079 97040 97010 96995 97007 97048 97113 97187
3309.7314 97250 97291 97310 97313 97303 97276 97224 97151 97077 97031 97034
3315.0347 97087 97165 97236 97279 97292 97286 97277 97271 97270 97272 97283
3320.3379 97312 97364 97435 97514 97583 97623 97618 97564 97466 97348 97241
3325.6411 97176 97167 97210 97280 97350 97400 97428 97445 97466 97496 97534
3330.9446 97569 97591 97596 97593 97596 97619 97666 97731 97795 97838 97848
3336.2478 97822 97769 97698 97619 97538 97465 97413 97394 97413 97462 97523
3341.5510 97580 97627 97667 97706 97743 97770 97775 97760 97742 97745 97789
3346.8542 97868 97953 98006 97998 97923 97798 97652 97515 97404 97334 97308
3352.1577 97327 97383 97459 97536 97596 97633 97652 97667 97694 97738 97798
3357.4609 97865 97925 97962 97965 97925 97846 97742 97637 97557 97526 97555
3362.7642 97641 97768 97910 98031 98098 98093 98019 97900 97774 97673 97610
3368.0674 97578 97558 97537 97512 97497 97512 97566 97654 97755 97844 97902
3373.3708 97922 97909 97879 97847 97823 97814 97818 97831 97843 97843 97820
3378.6741 97770 97699 97625 97568 97541 97540 97551 97553 97537 97508 97487
3383.9773 97493 97534 97604 97684 97756 97812 97853 97886 97918 97951 97978
3389.2805 97987 97968 97918 97842 97756 97677 97619 97584 97569 97564 97565
3394.5840 97574 97596 97630 97673 97715 97748 97766 97767 97747 97702 97625
3399.8872 97517 97391 97273 97187 97149 97156 97189 97224 97246 97259 97275
3405.1904 97311 97366 97424 97456 97436 97362 97255 97152 97090 97085 97123
3410.4937 97172 97197 97177 97116 97040 96976 96941 96929 96917 96884 96822
3415.7971 96747 96685 96658 96672 96710 96747 96758 96734 96681 96617 96563
3421.1003 96526 96507 96495 96476 96441 96387 96320 96249 96182 96123 96068
3426.4036 96017 95970 95932 95903 95879 95850 95811 95766 95727 95710 95722
3431.7068 95755 95795 95824 95830 95810 95766 95704 95633 95563 95503 95456
3437.0103 95420 95388 95360 95340 95336 95353 95383 95412 95424 95409 95370
3442.3135 95316 95258 95206 95163 95128 95096 95059 95013 94963 94922 94910
3447.6167 94933 94984 95040 95080 95094 95085 95064 95040 95015 94986 94950
3452.9199 94912 94884 94875 94887 94908 94917 94903 94863 94812 94771 94757
3458.2234 94770 94794 94804 94780 94721 94643 94572 94527 94511 94514 94515
3463.5266 94504 94478 94445 94415 94391 94370 94349 94324 94296 94267 94237
3468.8298 94201 94152 94086 94011 93943 93902 93901 93935 93986 94026 94030
3474.1331 93992 93919 93834 93765 93732 93740 93783 93841 93894 93924 93923
3479.4365 93893 93843 93783 93723 93670 93636 93627 93644 93682 93728 93766
3484.7397 93789 93794 93792 93793 93803 93819 93830 93821 93787 93732 93671
3490.0430 93625 93608 93625 93665 93713 93758 93795 93829 93862 93891 93909
3495.3462 93910 93904 93908 93940 94005 94092 94180 94246 94279 94278 94251
3500.6497 94210 94165 94128 94111 94124 94171 94244 94330 94416 94496 94571
3505.9529 94645 94723 94804 94880 94947 95000 95042 95081 95127 95187 95258
3511.2561 95333 95401 95451 95480 95495 95508 95532 95573 95628 95683 95722
3516.5593 95735 95723 95695 95665 95643 95628 95608 95565 95488 95371 95222
3521.8628 95061 94914 94802 94731 94690 94655 94604 94527 94427 94316 94211
3527.1660 94123 94053 93991 93920 93825 93700 93549 93388 93242 93128 93052
3532.4692 93006 92964 92904 92811 92690 92561 92451 92382 92359 92369 92390
3537.7725 92403 92397 92369 92320 92255 92186 92121 92068 92024 91983 91935
3543.0759 91877 91811 91751 91709 91691 91700 91729 91774 91827 91878 91910
3548.3792 91909 91868 91791 91694 91601 91535 91510 91522 91555 91588 91605
3553.6824 91604 91594 91581 91572 91569 91568 91565 91557 91541 91519 91493
3558.9856 91471 91459 91459 91470 91481 91484 91471 91443 91401 91349 91288
3564.2891 91215 91132 91049 90989 90981 91038 91140 91245 91318 91349 91355
3569.5923 91353 91358 91370 91380 91373 91340 91284 91217 91156 91110 91080
3574.8955 91062 91054 91061 91088 91135 91189 91230 91242 91223 91188 91158
3580.1990 91147 91155 91167 91169 91151 91110 91054 90991 90931 90878 90833
3585.5022 90795 90764 90743 90752 90816 90950 91133 91313 91433 91458 91385
3590.8054 91242 91071 90923 90837 90822 90853 90886 90883 90836 90763 90699
3596.1086 90666 90669 90692 90720 90742 90761 90785 90822 90869 90918 90957
3601.4121 90984 91004 91022 91035 91034 91010 90964 90910 90863 90835 90824
3606.7153 90818 90803 90785 90777 90791 90820 90835 90816 90755 90662 90557
3612.0186 90466 90412 90412 90460 90543 90638 90725 90783 90795 90757 90676
3617.3218 90579 90507 90500 90574 90702 90827 90903 90912 90874 90820 90779
3622.6252 90765 90773 90784 90778 90748 90703 90657 90620 90586 90534 90441
3627.9285 90308 90193 90197 90341 90533 90688 90779 90811 90799 90761 90717
3633.2317 90692 90699 90733 90773 90797 90790 90751 90695 90649 90642 90691
3638.5349 90782 90881 90949 90962 90918 90839 90760 90710 90699 90707 90705
3643.8384 90672 90605 90517 90430 90361 90317 90281 90228 90146 90056 90004
3649.1416 90031 90152 90322 90469 90548 90570 90567 90560 90553 90540 90512
3654.4448 90466 90412 90380 90395 90454 90519 90553 90545 90507 90455 90410
3659.7480 90389 90398 90437 90494 90551 90592 90601 90576 90530 90483 90453
3665.0515 90440 90430 90399 90333 90229 90103 89981 89901 89899 90010 90235
3670.3547 90508 90726 90822 90792 90658 90443 90164 89846 89551 89424 89606
3675.6580 89981 90293 90453 90505 90502 90486 90486 90521 90587 90659 90707
3680.9612 90713 90678 90615 90547 90496 90475 90483 90501 90510 90492 90449
3686.2646 90392 90344 90329 90357 90406 90429 90407 90368 90356 90406 90514
3691.5679 90635 90720 90750 90737 90705 90679 90670 90679 90692 90696 90683
3696.8711 90656 90629 90616 90623 90641 90652 90637 90589 90521 90466 90451
3702.1743 90471 90491 90486 90457 90430 90434 90483 90558 90617 90625 90568
3707.4778 90462 90335 90221 90137 90080 90036 90001 89988 90018 90087 90163
3712.7810 90210 90228 90240 90268 90323 90394 90457 90488 90479 90443 90405
3718.0842 90390 90404 90431 90442 90420 90365 90291 90222 90178 90162 90156
3723.3875 90143 90120 90095 90083 90099 90148 90222 90303 90372 90412 90414
3728.6909 90370 90281 90162 90035 89938 89911 89969 90073 90157 90179 90133
3733.9941 90043 89951 89905 89930 90009 90102 90184 90246 90287 90305 90306
3739.2974 90296 90290 90300 90328 90363 90385 90376 90322 90217 90082 90004
3744.6006 90072 90231 90371 90458 90493 90486 90440 90356 90243 90126 90033
3749.9041 89977 89960 89991 90085 90239 90404 90521 90569 90564 90528 90476
3755.2073 90421 90372 90339 90324 90320 90320 90317 90314 90321 90351 90405
3760.5105 90479 90559 90638 90706 90750 90761 90733 90673 90600 90541 90519
3765.8137 90534 90561 90569 90547 90497 90438 90401 90419 90500 90608 90690
3771.1172 90720 90700 90646 90577 90518 90492 90512 90579 90676 90772 90836
3776.4204 90847 90802 90716 90617 90536 90497 90497 90516 90530 90532 90525
3781.7236 90512 90495 90472 90444 90419 90410 90424 90458 90498 90531 90556
3787.0269 90582 90625 90693 90781 90871 90935 90949 90907 90820 90715 90624
3792.3303 90565 90536 90517 90478 90402 90291 90172 90093 90097 90183 90304
3797.6335 90400 90443 90427 90361 90256 90129 90014 89969 90033 90176 90337
3802.9368 90473 90570 90620 90622 90575 90491 90404 90369 90426 90545 90661
3808.2400 90733 90760 90755 90734 90709 90685 90662 90636 90601 90552 90483
3813.5435 90394 90286 90171 90076 90043 90095 90197 90292 90355 90382 90375
3818.8467 90333 90251 90140 90050 90062 90207 90413 90595 90715 90767 90756
3824.1499 90694 90598 90493 90411 90372 90378 90405 90425 90422 90400 90371
3829.4531 90349 90344 90362 90399 90439 90465 90471 90462 90446 90428 90409
3834.7566 90384 90349 90304 90256 90214 90184 90163 90141 90115 90103 90134
3840.0598 90229 90380 90546 90678 90743 90737 90675 90594 90533 90515 90530
3845.3630 90554 90568 90562 90539 90510 90489 90485 90493 90497 90473 90395
3850.6663 90246 90022 89749 89492 89374 89515 89876 90226 90418 90470 90454
3855.9697 90427 90425 90464 90533 90608 90659 90674 90656 90617 90571 90533
3861.2729 90503 90468 90409 90315 90197 90085 90032 90082 90221 90374 90474
3866.5762 90492 90431 90307 90144 89988 89914 89987 90168 90340 90437 90465
3871.8794 90458 90444 90440 90453 90478 90506 90536 90575 90626 90680 90719
3877.1829 90722 90675 90577 90445 90312 90226 90226 90307 90421 90525 90599
3882.4861 90639 90645 90613 90541 90440 90337 90275 90281 90336 90403 90456
3887.7893 90487 90500 90498 90482 90455 90422 90397 90400 90437 90494 90551
3893.0925 90599 90637 90669 90695 90708 90692 90640 90554 90448 90347 90281
3898.3960 90266 90291 90320 90326 90304 90277 90271 90298 90348 90391 90403
3903.6992 90382 90354 90352 90393 90469 90553 90623 90666 90684 90686 90682
3909.0024 90684 90695 90716 90744 90773 90797 90812 90813 90798 90768 90723
3914.3057 90668 90606 90546 90501 90484 90498 90533 90569 90591 90593 90581
3919.6091 90565 90556 90559 90569 90576 90573 90555 90523 90484 90453 90447
3924.9124 90476 90536 90610 90677 90721 90733 90708 90653 90580 90506 90444
3930.2156 90407 90401 90428 90485 90554 90614 90650 90662 90664 90676 90708
3935.5188 90763 90827 90885 90926 90946 90946 90931 90897 90845 90778 90704
3940.8223 90636 90584 90552 90540 90545 90566 90602 90652 90705 90748 90769
3946.1255 90765 90747 90730 90727 90739 90750 90745 90721 90691 90675 90686
3951.4287 90723 90765 90789 90778 90732 90674 90630 90623 90657 90715 90772
3956.7319 90802 90796 90764 90730 90716 90734 90775 90820 90847 90842 90812
3962.0354 90776 90757 90769 90807 90854 90889 90895 90863 90802 90729 90664
3967.3386 90623 90614 90636 90675 90720 90761 90793 90819 90839 90852 90853
3972.6418 90839 90812 90780 90755 90747 90762 90794 90829 90851 90846 90814
3977.9451 90767 90722 90696 90694 90711 90732 90737 90720 90683 90644 90624
3983.2485 90635 90676 90730 90775 90793 90782 90752 90718 90687 90658 90627
3988.5518 90594 90566 90554 90566 90599 90638 90669 90684 90686 90681 90671
3993.8550 90656 90634 90606 90579 90561 90556 90560 90563 90557 90540 90521
3999.1582 90509 90512 90527
##END= 
