##TITLE= STDACIDOACETILSALICILICO
##JCAMP-DX= 4.24
##DATA TYPE= INFRARED SPECTRUM
##ORIGIN= JASCO
##OWNER= 
##DATE= 22/03/30
##TIME= 18:33:43
##SPECTROMETER/DATA SYSTEM= 
##RESOLUTION= 
##DELTAX=   0.48211674
##XUNITS= 1/CM
##YUNITS= TRANSMITTANCE
##XFACTOR= 1.00000
##YFACTOR= 1E-005
##FIRSTX=   599.7532
##LASTX=  4000.1226
##NPOINTS=     7054
##FIRSTY=      0.62546
##MAXY=      0.97238
##MINY=      0.46510
##XYDATA= (X++(Y..Y))
599.7532 62546 64235 65988 67708 69377 71029 72708 74422 76122 77711 79084
605.0565 80179 81012 81663 82243 82836 83471 84112 84690 85146 85464 85669
610.3598 85807 85909 85975 85985 85923 85802 85656 85526 85435 85375 85323
615.6631 85252 85151 85033 84925 84857 84844 84880 84934 84958 84904 84734
620.9664 84449 84101 83783 83587 83563 83683 83854 83953 83887 83644 83294
626.2697 82946 82685 82530 82438 82338 82181 81963 81724 81519 81383 81310
631.5729 81263 81192 81056 80831 80513 80107 79628 79099 78558 78048 77604
636.8762 77226 76871 76461 75902 75116 74075 72822 71462 70135 68973 68068
642.1795 67463 67158 67128 67333 67720 68228 68796 69389 70018 70750 71682
647.4828 72888 74356 75951 77449 78630 79383 79745 79860 79886 79921 79974
652.7861 79978 79850 79539 79055 78456 77822 77224 76704 76267 75877 75467
658.0894 74959 74295 73461 72487 71429 70331 69208 68053 66849 65577 64231
663.3926 62834 61460 60221 59216 58484 58001 57745 57823 58751 61805 67676
668.6959 73262 76119 77421 78392 79453 80625 81774 82736 83417 83843 84130
673.9992 84399 84703 85008 85223 85263 85101 84802 84489 84285 84232 84274
679.3025 84285 84157 83865 83481 83123 82882 82773 82741 82709 82621 82459
684.6058 82230 81939 81588 81178 80733 80294 79911 79616 79411 79267 79136
689.9091 78973 78748 78455 78096 77677 77193 76638 76011 75334 74643 73970
695.2123 73317 72643 71870 70920 69761 68423 66993 65571 64226 62964 61740
700.5156 60480 59116 57623 56039 54482 53137 52236 52021 52688 54337 56924
705.8189 60255 64027 67905 71594 74891 77693 79979 81775 83128 84090 84729
711.1222 85125 85373 85562 85748 85938 86099 86180 86147 86001 85782 85549
716.4255 85347 85196 85088 85003 84922 84845 84780 84731 84688 84626 84518
721.7288 84356 84144 83893 83612 83305 82980 82655 82358 82112 81918 81757
727.0320 81594 81407 81200 80999 80840 80743 80699 80674 80622 80505 80303
732.3353 80023 79691 79343 79010 78706 78419 78125 77802 77449 77093 76775
737.6386 76527 76356 76230 76094 75889 75572 75130 74583 73974 73355 72770
742.9419 72244 71780 71360 70951 70508 69989 69358 68599 67720 66753 65735
748.2452 64693 63636 62559 61460 60351 59271 58273 57414 56746 56318 56173
753.5485 56363 56939 57943 59382 61213 63357 65727 68258 70905 73605 76244
758.8517 78660 80707 82322 83549 84495 85263 85911 86451 86873 87182 87410
764.1550 87598 87758 87864 87863 87720 87446 87099 86747 86427 86130 85813
769.4583 85440 85006 84544 84097 83691 83323 82967 82599 82208 81801 81383
774.7616 80952 80501 80026 79541 79069 78629 78225 77838 77441 77010 76542
780.0649 76045 75533 75014 74484 73936 73363 72764 72141 71493 70812 70083
785.3682 69288 68418 67472 66468 65442 64446 63550 62823 62325 62083 62083
790.6714 62279 62609 63017 63468 63943 64427 64895 65315 65654 65895 66040
795.9747 66103 66091 65997 65796 65464 64981 64342 63559 62656 61674 60665
801.2780 59696 58838 58165 57760 57720 58160 59187 60870 63187 66007 69104
806.5813 72207 75074 77548 79578 81196 82474 83475 84244 84805 85183 85411
811.8846 85530 85574 85564 85506 85391 85214 84979 84705 84426 84177 83978
817.1879 83823 83679 83495 83231 82874 82447 82003 81591 81243 80956 80697
822.4911 80423 80091 79675 79176 78623 78062 77542 77095 76720 76387 76050
827.7944 75669 75223 74712 74140 73503 72791 71994 71119 70195 69262 68346
833.0977 67451 66550 65603 64585 63500 62385 61299 60304 59450 58773 58302
838.4010 58068 58115 58494 59254 60427 62004 63929 66093 68357 70573 72623
843.7043 74434 75987 77298 78399 79315 80056 80626 81032 81291 81433 81488
849.0076 81484 81444 81387 81333 81293 81268 81243 81189 81081 80914 80706
854.3109 80496 80323 80210 80152 80125 80098 80047 79960 79834 79669 79466
859.6141 79229 78971 78716 78494 78328 78222 78156 78093 77997 77847 77654
864.9174 77454 77287 77183 77140 77130 77113 77059 76960 76831 76696 76568
870.2207 76449 76328 76195 76048 75894 75741 75595 75458 75335 75225 75128
875.5240 75036 74931 74799 74630 74428 74210 73985 73753 73497 73201 72859
880.8273 72489 72119 71779 71478 71205 70942 70678 70422 70198 70029 69927
886.1306 69890 69906 69961 70044 70140 70229 70292 70313 70291 70234 70148
891.4338 70030 69871 69660 69400 69103 68784 68454 68107 67734 67333 66910
896.7371 66481 66056 65633 65199 64746 64275 63807 63360 62943 62543 62134
902.0404 61686 61189 60652 60097 59547 59013 58488 57961 57413 56834 56220
907.3437 55571 54893 54197 53490 52780 52070 51357 50638 49915 49200 48514
912.6470 47886 47345 46918 46632 46510 46577 46856 47369 48127 49137 50394
917.9503 51877 53547 55337 57155 58900 60482 61844 62970 63878 64606 65189
923.2535 65654 66019 66292 66481 66596 66647 66658 66657 66683 66773 66951
928.5568 67221 67568 67964 68386 68820 69266 69731 70222 70736 71267 71805
933.8601 72346 72892 73449 74017 74591 75159 75710 76235 76735 77219 77694
939.1634 78168 78639 79098 79525 79902 80218 80480 80707 80925 81151 81384
944.4667 81613 81820 81997 82143 82262 82359 82438 82503 82561 82621 82691
949.7700 82767 82836 82885 82906 82901 82884 82873 82878 82899 82927 82943
955.0732 82933 82887 82806 82701 82585 82472 82368 82273 82183 82091 81988
960.3765 81859 81690 81464 81170 80800 80350 79822 79217 78540 77799 77009
965.6798 76193 75386 74630 73963 73417 73005 72726 72572 72536 72619 72826
970.9831 73160 73622 74207 74909 75722 76631 77607 78601 79553 80402 81110
976.2864 81667 82089 82404 82640 82810 82915 82952 82919 82827 82698 82560
981.5897 82438 82345 82278 82227 82177 82117 82040 81945 81827 81683 81514
986.8929 81324 81126 80940 80778 80645 80534 80431 80323 80197 80050 79880
992.1962 79685 79460 79208 78936 78658 78387 78128 77870 77592 77267 76877
997.4995 76418 75903 75359 74828 74355 73987 73751 73648 73648 73691 73711
1002.8028 73652 73484 73205 72832 72389 71895 71363 70796 70195 69563 68903
1008.1061 68226 67546 66881 66252 65682 65195 64821 64599 64573 64790 65289
1013.4094 66090 67179 68508 70000 71560 73098 74543 75850 76994 77958 78733
1018.7126 79315 79713 79956 80088 80153 80183 80185 80148 80054 79889 79656
1024.0160 79369 79040 78682 78297 77887 77459 77026 76604 76208 75849 75529
1029.3192 75253 75023 74847 74729 74661 74622 74578 74494 74348 74135 73867
1034.6226 73564 73245 72928 72630 72375 72194 72117 72164 72339 72633 73028
1039.9258 73503 74033 74596 75170 75744 76319 76909 77528 78176 78840 79492
1045.2291 80100 80639 81091 81446 81699 81857 81937 81968 81979 81990 82004
1050.5323 82014 82007 81981 81941 81895 81850 81804 81755 81700 81641 81579
1055.8357 81512 81434 81335 81213 81070 80921 80781 80660 80560 80474 80391
1061.1389 80302 80204 80098 79985 79859 79714 79547 79359 79163 78977 78811
1066.4423 78666 78530 78386 78218 78022 77809 77592 77387 77202 77033 76864
1071.7455 76671 76437 76159 75849 75532 75231 74957 74703 74451 74183 73887
1077.0488 73557 73189 72787 72355 71909 71466 71041 70638 70248 69859 69469
1082.3521 69091 68747 68460 68241 68093 68013 68002 68059 68179 68342 68515
1087.6554 68656 68730 68714 68606 68410 68143 67820 67467 67116 66806 66579
1092.9586 66473 66521 66754 67197 67878 68809 69981 71351 72839 74346 75772
1098.2620 77043 78115 78983 79662 80181 80571 80858 81063 81205 81298 81357
1103.5652 81398 81443 81506 81591 81690 81781 81845 81869 81858 81825 81781
1108.8685 81732 81672 81589 81477 81336 81170 80989 80795 80585 80354 80097
1114.1718 79819 79532 79249 78981 78731 78493 78260 78028 77796 77567 77342
1119.4751 77119 76886 76629 76334 75989 75597 75166 74717 74273 73853 73467
1124.7783 73114 72781 72447 72095 71709 71280 70798 70258 69653 68974 68210
1130.0817 67341 66350 65221 63956 62584 61173 59838 58730 58022 57868 58357
1135.3849 59471 61073 62933 64791 66430 67720 68630 69198 69493 69579 69503
1140.6882 69307 69037 68745 68489 68318 68258 68310 68447 68625 68793 68906
1145.9915 68938 68887 68767 68602 68406 68183 67931 67645 67329 66994 66655
1151.2948 66326 66009 65703 65401 65095 64781 64456 64120 63775 63428 63090
1156.5980 62773 62488 62241 62030 61845 61672 61497 61312 61118 60920 60727
1161.9014 60544 60369 60193 60001 59778 59520 59232 58929 58628 58341 58067
1167.2046 57796 57512 57203 56866 56506 56134 55760 55389 55023 54660 54296
1172.5079 53930 53563 53204 52859 52535 52235 51954 51682 51412 51139 50866
1177.8112 50596 50335 50086 49848 49619 49401 49198 49017 48873 48778 48745
1183.1145 48786 48908 49116 49415 49811 50316 50939 51687 52558 53544 54627
1188.4177 55787 57005 58264 59545 60836 62123 63397 64651 65876 67063 68200
1193.7211 69279 70295 71252 72158 73020 73843 74620 75338 75979 76531 76992
1199.0243 77368 77668 77896 78045 78098 78032 77830 77489 77021 76457 75829
1204.3276 75170 74501 73835 73176 72529 71902 71310 70765 70281 69863 69509
1209.6309 69210 68950 68714 68485 68245 67976 67662 67291 66858 66370 65844
1214.9342 65304 64780 64298 63885 63560 63341 63237 63258 63412 63709 64163
1220.2374 64790 65600 66594 67758 69070 70499 72013 73585 75190 76800 78387
1225.5408 79923 81378 82727 83949 85031 85965 86755 87412 87951 88386 88727
1230.8440 88979 89147 89242 89276 89268 89231 89176 89104 89012 88896 88751
1236.1473 88580 88382 88163 87925 87675 87420 87169 86928 86700 86484 86277
1241.4506 86079 85892 85724 85580 85457 85347 85236 85109 84960 84790 84607
1246.7539 84421 84232 84038 83826 83585 83310 82998 82651 82266 81839 81361
1252.0571 80827 80238 79609 78964 78336 77771 77318 77032 76959 77120 77493
1257.3605 78011 78574 79082 79463 79691 79785 79792 79763 79730 79701 79662
1262.6637 79588 79452 79231 78916 78516 78056 77567 77069 76557 76008 75396
1267.9670 74722 74022 73364 72812 72404 72148 72025 71994 72010 72031 72027
1273.2703 71979 71873 71695 71430 71069 70611 70063 69437 68748 68011 67237
1278.5736 66438 65622 64798 63972 63155 62358 61595 60882 60231 59656 59164
1283.8768 58760 58440 58201 58040 57955 57943 57996 58102 58239 58381 58510
1289.1802 58616 58698 58759 58805 58843 58883 58938 59025 59157 59346 59593
1294.4834 59893 60229 60583 60929 61243 61501 61686 61789 61805 61735 61581
1299.7867 61350 61053 60711 60356 60024 59756 59585 59535 59616 59824 60139
1305.0900 60538 60995 61491 62019 62581 63190 63857 64588 65379 66214 67079
1310.3933 67962 68863 69791 70765 71794 72872 73976 75076 76151 77198 78228
1315.6965 79250 80266 81263 82220 83118 83946 84694 85356 85929 86414 86822
1320.9999 87167 87462 87717 87935 88118 88272 88402 88520 88639 88771 88924
1326.3031 89107 89321 89566 89832 90112 90396 90678 90956 91226 91489 91740
1331.6064 91972 92179 92355 92500 92618 92720 92815 92907 92994 93072 93135
1336.9097 93181 93214 93237 93255 93264 93263 93244 93209 93157 93093 93020
1342.2130 92938 92849 92754 92657 92560 92461 92358 92244 92117 91980 91839
1347.5162 91702 91569 91436 91291 91122 90923 90693 90438 90166 89884 89595
1352.8196 89295 88970 88606 88196 87750 87285 86817 86343 85848 85317 84745
1358.1228 84135 83492 82811 82091 81336 80566 79805 79068 78355 77666 77024
1363.4261 76477 76060 75775 75596 75492 75437 75416 75421 75452 75513 75608
1368.7294 75736 75894 76073 76270 76483 76717 76977 77276 77641 78109 78718
1374.0327 79473 80320 81175 81984 82748 83494 84248 85012 85762 86462 87081
1379.3359 87611 88063 88453 88795 89094 89349 89559 89725 89851 89943 90007
1384.6393 90052 90080 90094 90087 90048 89972 89863 89745 89635 89536 89440
1389.9425 89336 89213 89070 88910 88741 88564 88374 88157 87895 87578 87223
1395.2458 86867 86543 86254 85981 85702 85390 85021 84592 84134 83695 83296
1400.5491 82920 82540 82141 81725 81304 80890 80479 80053 79600 79132 78690
1405.8524 78312 78005 77753 77538 77352 77197 77074 76976 76888 76788 76658
1411.1556 76489 76274 76012 75704 75354 74969 74556 74115 73644 73145 72634
1416.4590 72142 71708 71371 71173 71193 71530 72191 73009 73813 74563 75294
1421.7622 76056 76888 77810 78794 79742 80532 81105 81489 81745 81922 82051
1427.0656 82146 82212 82250 82255 82224 82155 82053 81926 81782 81622 81443
1432.3688 81244 81032 80821 80628 80459 80314 80194 80118 80126 80243 80420
1437.6721 80589 80739 80887 81051 81235 81425 81598 81729 81804 81822 81785
1442.9753 81687 81513 81246 80880 80430 79921 79368 78759 78044 77173 76159
1448.2787 75112 74153 73309 72519 71690 70738 69626 68391 67144 66009 65055
1453.5819 64286 63680 63222 62930 62870 63152 63882 65016 66296 67477 68517
1458.8853 69467 70375 71294 72288 73419 74707 76109 77538 78927 80292 81751
1464.1885 83455 85384 87217 88606 89511 90106 90565 90979 91366 91703 91966
1469.4918 92155 92288 92390 92474 92531 92527 92411 92198 91967 91761 91571
1474.7950 91364 91107 90771 90353 89880 89381 88856 88278 87620 86866 86024
1480.0984 85141 84309 83648 83261 83193 83423 83886 84493 85148 85773 86323
1485.4016 86806 87269 87780 88371 89002 89603 90145 90684 91330 92148 93026
1490.7050 93731 94168 94412 94570 94702 94824 94931 95011 95059 95074 95067
1496.0082 95056 95056 95068 95077 95066 95024 94954 94870 94788 94712 94636
1501.3115 94553 94465 94378 94302 94241 94192 94147 94095 94015 93859 93568
1506.6147 93197 92944 92845 92812 92792 92770 92747 92724 92704 92688 92677
1511.9181 92668 92656 92637 92605 92563 92512 92460 92414 92383 92366 92347
1517.2213 92302 92231 92150 92072 92001 91938 91884 91847 91840 91865 91899
1522.5247 91929 91955 91982 92009 92032 92046 92047 92042 92038 92041 92051
1527.8279 92060 92060 92048 92023 91989 91952 91912 91871 91826 91770 91693
1533.1312 91597 91506 91446 91421 91413 91405 91389 91364 91334 91307 91292
1538.4344 91304 91348 91385 91339 91212 91053 90894 90750 90633 90544 90478
1543.7378 90425 90376 90328 90280 90230 90173 90107 90028 89935 89829 89710
1549.0410 89583 89456 89339 89234 89133 89029 88917 88794 88654 88491 88308
1554.3444 88129 87982 87866 87764 87656 87528 87362 87139 86863 86688 86786
1559.6476 86914 86940 86907 86856 86803 86751 86701 86648 86589 86516 86428
1564.9509 86326 86217 86109 86005 85902 85793 85660 85471 85175 84766 84344
1570.2542 84017 83787 83594 83394 83168 82921 82676 82454 82269 82128 82053
1575.5575 82103 82337 82695 83031 83302 83541 83786 84048 84314 84558 84754
1580.8607 84890 84974 85020 85037 85028 84990 84923 84829 84716 84589 84455
1586.1641 84312 84158 83988 83798 83585 83353 83106 82848 82581 82300 82000
1591.4674 81674 81318 80924 80485 79989 79436 78842 78242 77680 77188 76767
1596.7706 76389 76007 75564 75006 74294 73405 72339 71111 69747 68265 66675
1602.0740 64998 63294 61697 60391 59562 59363 59907 61282 63504 66456 69853
1607.3772 73322 76553 79383 81770 83715 85219 86301 87025 87492 87797 88006
1612.6805 88150 88236 88272 88268 88238 88190 88121 88013 87864 87706 87572
1617.9838 87459 87349 87228 87092 86944 86791 86637 86484 86324 86149 85954
1623.2871 85750 85564 85411 85283 85165 85047 84919 84776 84610 84423 84226
1628.5903 84033 83850 83674 83498 83315 83119 82910 82693 82475 82260 82047
1633.8937 81826 81584 81314 81042 80825 80669 80532 80386 80225 80061 79904
1639.1969 79765 79648 79551 79468 79389 79303 79202 79088 78968 78851 78742
1644.5002 78637 78526 78391 78217 78011 77798 77599 77407 77211 77007 76801
1649.8035 76592 76377 76148 75894 75590 75183 74596 73976 73676 73540 73384
1655.1068 73182 72940 72663 72356 72027 71681 71323 70948 70555 70151 69750
1660.4100 69367 69004 68636 68218 67716 67158 66627 66169 65761 65356 64923
1665.7134 64464 64004 63568 63159 62743 62262 61684 61071 60545 60141 59775
1671.0166 59352 58851 58326 57850 57453 57114 56777 56367 55840 55272 54824
1676.3199 54543 54366 54230 54110 54009 53942 53931 53997 54137 54321 54511
1681.6232 54675 54800 54892 55013 55381 56311 57436 58091 58383 58561 58742
1686.9265 58969 59266 59644 60100 60613 61149 61675 62173 62641 63082 63500
1692.2297 63892 64253 64575 64861 65139 65493 66097 67120 68369 69356 69946
1697.5331 70290 70518 70706 70974 71704 73588 76257 78069 78907 79390 79850
1702.8363 80413 81115 81931 82781 83566 84248 84864 85459 86020 86497 86867
1708.1396 87150 87386 87609 87832 88041 88213 88333 88407 88450 88478 88499
1713.4429 88520 88544 88571 88588 88585 88556 88498 88398 88236 88015 87797
1718.7462 87635 87515 87406 87288 87153 87003 86845 86685 86530 86382 86240
1724.0494 86103 85966 85823 85668 85498 85316 85127 84935 84734 84507 84233
1729.3528 83904 83538 83183 82874 82613 82376 82134 81847 81462 80961 80467
1734.6560 80112 79839 79554 79216 78826 78404 77976 77557 77136 76679 76162
1739.9594 75625 75138 74729 74365 73990 73556 73037 72464 71910 71432 71028
1745.2626 70666 70319 69983 69673 69417 69233 69118 69048 69013 69036 69174
1750.5659 69492 70001 70611 71194 71696 72134 72546 72955 73368 73791 74248
1755.8691 74778 75413 76131 76853 77501 78049 78519 78944 79357 79792 80289
1761.1725 80870 81486 82022 82395 82620 82759 82870 82982 83098 83211 83317
1766.4757 83432 83590 83829 84158 84531 84885 85187 85449 85706 86021 86490
1771.7791 87202 88080 88893 89524 90023 90479 90952 91461 91985 92475 92894
1777.0823 93242 93545 93831 94109 94374 94609 94807 94977 95136 95294 95446
1782.3856 95584 95705 95807 95891 95959 96013 96059 96103 96146 96186 96217
1787.6888 96236 96246 96252 96260 96277 96302 96331 96351 96350 96319 96268
1792.9922 96220 96189 96171 96158 96139 96106 96059 96002 95943 95886 95824
1798.2954 95751 95659 95553 95446 95356 95292 95253 95234 95230 95235 95242
1803.5988 95245 95241 95234 95235 95258 95316 95413 95534 95655 95750 95804
1808.9020 95820 95813 95807 95823 95869 95940 96023 96104 96176 96238 96291
1814.2053 96339 96383 96426 96463 96490 96500 96493 96476 96455 96438 96426
1819.5085 96417 96410 96405 96404 96406 96409 96412 96416 96424 96437 96447
1824.8119 96439 96400 96335 96265 96213 96189 96191 96211 96228 96209 96125
1830.1151 95988 95844 95732 95662 95630 95623 95626 95618 95581 95515 95430
1835.4185 95348 95290 95265 95271 95294 95317 95330 95333 95333 95335 95342
1840.7217 95353 95363 95367 95365 95356 95342 95332 95335 95357 95392 95431
1846.0250 95473 95514 95550 95569 95555 95500 95409 95298 95185 95087 95014
1851.3282 94974 94966 94986 95027 95076 95119 95144 95150 95151 95171 95230
1856.6316 95331 95452 95561 95631 95657 95652 95638 95628 95622 95611 95593
1861.9348 95581 95590 95637 95722 95838 95968 96093 96199 96272 96299 96273
1867.2382 96198 96090 95981 95908 95895 95929 95980 96021 96041 96041 96029
1872.5414 96008 95983 95954 95925 95900 95885 95879 95876 95866 95843 95806
1877.8447 95762 95723 95694 95679 95679 95690 95701 95696 95661 95595 95517
1883.1479 95461 95460 95521 95616 95692 95703 95636 95521 95405 95334 95334
1888.4513 95407 95525 95640 95699 95686 95618 95533 95468 95448 95480 95548
1893.7545 95619 95661 95662 95635 95611 95609 95632 95669 95708 95751 95802
1899.0579 95866 95931 95976 95980 95941 95877 95819 95794 95809 95854 95908
1904.3611 95955 95985 96000 96000 95984 95952 95906 95852 95802 95764 95745
1909.6644 95749 95776 95820 95866 95899 95910 95910 95922 95975 96081 96217
1914.9677 96337 96396 96375 96289 96175 96069 95985 95906 95808 95696 95597
1920.2710 95548 95566 95646 95747 95811 95790 95689 95566 95489 95498 95589
1925.5742 95718 95816 95819 95706 95517 95340 95263 95324 95491 95671 95767
1930.8776 95720 95540 95289 95041 94856 94758 94745 94797 94889 94986 95056
1936.1808 95084 95082 95092 95160 95304 95490 95645 95697 95616 95433 95223
1941.4841 95076 95054 95153 95305 95440 95542 95642 95776 95945 96104 96182
1946.7874 96134 95984 95815 95722 95767 95937 96154 96315 96347 96234 96017
1952.0907 95759 95508 95283 95081 94901 94756 94669 94662 94732 94841 94927
1957.3939 94931 94833 94675 94552 94567 94774 95138 95543 95854 95987 95943
1962.6973 95792 95617 95467 95353 95264 95185 95103 94995 94828 94586 94294
1968.0005 94022 93840 93775 93803 93872 93951 94050 94222 94522 94959 95484
1973.3038 96005 96432 96716 96843 96826 96676 96405 96048 95681 95412 95338
1978.6071 95484 95780 96094 96294 96317 96190 96007 95877 95864 95959 96095
1983.9104 96184 96174 96065 95900 95731 95595 95512 95504 95599 95812 96115
1989.2136 96427 96650 96709 96587 96332 96041 95811 95684 95639 95639 95663
1994.5170 95708 95763 95799 95778 95685 95543 95402 95298 95228 95146 94999
1999.8202 94775 94525 94350 94355 94596 95043 95580 96047 96302 96278 96018
2005.1235 95649 95328 95165 95187 95338 95537 95736 95948 96217 96558 96920
2010.4268 97186 97238 97031 96640 96248 96045 96124 96424 96763 96943 96857
2015.7301 96543 96162 95887 95806 95880 96004 96088 96080 95955 95680 95234
2021.0333 94664 94126 93860 94076 94802 95817 96726 97164 97007 96444 95843
2026.3367 95530 95620 96005 96468 96820 96987 96976 96814 96496 96015 95406
2031.6399 94773 94247 93926 93836 93936 94163 94471 94834 95226 95593 95850
2036.9432 95906 95719 95327 94855 94462 94283 94356 94609 94885 95031 94977
2042.2465 94769 94515 94301 94140 93986 93793 93574 93416 93425 93665 94104
2047.5498 94623 95062 95299 95299 95124 94885 94680 94545 94463 94392 94309
2052.8530 94226 94180 94203 94290 94395 94463 94470 94439 94424 94464 94554
2058.1563 94648 94690 94658 94580 94517 94517 94584 94678 94742 94740 94675
2063.4597 94588 94531 94541 94618 94718 94776 94735 94577 94337 94095 93942
2068.7629 93941 94093 94338 94579 94737 94782 94746 94697 94696 94767 94886
2074.0662 94993 95027 94953 94780 94552 94339 94205 94187 94283 94449 94620
2079.3694 94732 94748 94668 94525 94364 94225 94129 94075 94053 94055 94076
2084.6729 94120 94185 94265 94347 94415 94458 94468 94440 94370 94255 94107
2089.9761 93952 93827 93770 93798 93903 94058 94230 94393 94531 94630 94676
2095.2793 94655 94562 94422 94282 94198 94196 94265 94358 94423 94434 94406
2100.5825 94371 94357 94365 94375 94370 94357 94367 94428 94540 94664 94740
2105.8860 94726 94622 94473 94344 94288 94325 94437 94588 94738 94858 94929
2111.1892 94940 94890 94786 94649 94516 94424 94401 94446 94530 94610 94650
2116.4924 94642 94603 94562 94537 94523 94501 94456 94397 94349 94342 94387
2121.7957 94477 94593 94719 94846 94965 95054 95087 95048 94953 94843 94759
2127.0991 94708 94659 94572 94439 94312 94286 94430 94731 95073 95296 95279
2132.4023 95019 94630 94272 94053 93972 93941 93858 93696 93525 93463 93590
2137.7056 93892 94258 94542 94639 94534 94297 94041 93859 93798 93852 93991
2143.0088 94185 94416 94664 94889 95024 94999 94780 94410 94005 93706 93613
2148.3123 93743 94031 94374 94682 94918 95093 95242 95395 95574 95787 96028
2153.6155 96269 96456 96529 96455 96259 96027 95863 95834 95935 96087 96185
2158.9187 96149 95970 95704 95437 95244 95166 95199 95298 95391 95414 95339
2164.2219 95191 95029 94904 94838 94821 94844 94911 95047 95271 95569 95885
2169.5254 96129 96218 96105 95805 95388 94962 94632 94462 94444 94499 94505
2174.8286 94349 94000 93534 93112 92904 93008 93411 93990 94566 94960 95066
2180.1318 94884 94515 94111 93803 93654 93647 93721 93817 93907 93993 94079
2185.4351 94147 94171 94142 94093 94087 94168 94320 94457 94468 94285 93933
2190.7385 93528 93217 93104 93209 93468 93778 94044 94221 94314 94364 94411
2196.0417 94467 94513 94513 94444 94312 94159 94034 93967 93954 93960 93953
2201.3450 93920 93881 93868 93912 94013 94143 94250 94276 94185 93985 93735
2206.6482 93531 93460 93558 93780 94020 94157 94123 93940 93708 93545 93516
2211.9517 93609 93743 93824 93796 93665 93483 93313 93195 93138 93133 93173
2217.2549 93253 93369 93504 93626 93708 93738 93731 93716 93716 93739 93779
2222.5581 93829 93884 93940 93986 93993 93926 93770 93543 93302 93119 93039
2227.8613 93065 93152 93235 93270 93255 93222 93217 93264 93357 93467 93566
2233.1648 93641 93691 93716 93710 93665 93576 93460 93344 93259 93227 93251
2238.4680 93319 93411 93502 93574 93615 93630 93631 93636 93656 93689 93728
2243.7712 93765 93792 93806 93797 93751 93660 93532 93394 93284 93229 93229
2249.0745 93257 93275 93256 93201 93135 93088 93082 93112 93162 93209 93242
2254.3779 93258 93262 93252 93222 93169 93102 93042 93012 93022 93063 93115
2259.6812 93162 93205 93263 93349 93463 93581 93664 93680 93617 93488 93324
2264.9844 93166 93054 93009 93033 93097 93155 93165 93110 93005 92892 92819
2270.2876 92816 92886 93003 93127 93215 93235 93176 93046 92877 92710 92586
2275.5911 92531 92552 92636 92750 92857 92925 92934 92894 92835 92796 92805
2280.8943 92859 92927 92963 92937 92846 92716 92583 92477 92413 92388 92393
2286.1975 92412 92433 92438 92421 92384 92346 92333 92362 92430 92517 92596
2291.5007 92648 92674 92683 92683 92672 92641 92583 92506 92433 92393 92404
2296.8042 92463 92544 92611 92636 92615 92567 92528 92524 92562 92625 92681
2302.1074 92701 92679 92628 92577 92551 92560 92597 92645 92685 92705 92705
2307.4106 92690 92671 92657 92655 92664 92680 92695 92698 92681 92642 92583
2312.7139 92516 92456 92423 92425 92463 92523 92587 92635 92657 92652 92627
2318.0173 92589 92551 92525 92529 92578 92678 92812 92943 93025 93026 92942
2323.3206 92804 92658 92547 92493 92492 92526 92574 92617 92637 92628 92587
2328.6238 92523 92450 92388 92354 92366 92435 92565 92744 92941 93112 93210
2333.9270 93214 93129 92984 92818 92661 92533 92442 92393 92393 92443 92531
2339.2305 92627 92690 92693 92630 92529 92425 92346 92307 92308 92350 92429
2344.5337 92537 92649 92733 92759 92715 92613 92478 92333 92194 92075 91989
2349.8369 91950 91968 92036 92129 92214 92277 92327 92389 92474 92570 92648
2355.1401 92691 92712 92744 92816 92918 93003 93018 92943 92813 92700 92679
2360.4436 92781 92980 93199 93342 93332 93152 92864 92585 92428 92440 92581
2365.7468 92751 92851 92836 92732 92598 92486 92402 92322 92216 92080 91935
2371.0500 91804 91697 91602 91502 91391 91283 91201 91157 91140 91130 91104
2376.3533 91056 90997 90945 90913 90906 90915 90934 90954 90969 90973 90957
2381.6567 90916 90849 90769 90693 90636 90609 90605 90612 90611 90591 90549
2386.9600 90495 90442 90401 90381 90380 90396 90419 90443 90461 90469 90470
2392.2632 90470 90475 90488 90499 90497 90472 90426 90375 90344 90346 90384
2397.5664 90439 90487 90508 90494 90456 90410 90370 90343 90324 90306 90286
2402.8699 90269 90269 90300 90366 90456 90545 90606 90626 90607 90566 90520
2408.1731 90482 90456 90442 90439 90446 90453 90448 90420 90372 90319 90288
2413.4763 90293 90327 90366 90381 90363 90320 90279 90256 90253 90256 90252
2418.7795 90238 90222 90215 90219 90222 90214 90192 90169 90167 90198 90256
2424.0830 90318 90356 90353 90314 90259 90212 90184 90170 90155 90124 90078
2429.3862 90034 90018 90046 90114 90199 90266 90286 90249 90168 90071 89986
2434.6895 89934 89917 89923 89933 89930 89908 89875 89847 89839 89855 89887
2439.9927 89920 89939 89936 89912 89875 89834 89797 89769 89752 89748 89752
2445.2961 89760 89765 89759 89741 89712 89679 89645 89607 89560 89500 89428
2450.5994 89360 89315 89308 89337 89385 89426 89440 89421 89380 89331 89289
2455.9026 89258 89238 89225 89218 89216 89218 89221 89223 89222 89219 89210
2461.2058 89190 89152 89096 89029 88965 88921 88911 88934 88981 89031 89061
2466.5093 89056 89010 88932 88845 88771 88729 88721 88737 88763 88784 88798
2471.8125 88805 88807 88799 88772 88717 88636 88541 88457 88401 88383 88397
2477.1157 88424 88448 88457 88449 88431 88413 88403 88403 88410 88413 88405
2482.4189 88382 88346 88308 88278 88258 88242 88218 88175 88115 88050 88000
2487.7224 87977 87983 88002 88015 88009 87979 87937 87895 87862 87837 87810
2493.0256 87769 87706 87627 87550 87496 87484 87518 87581 87650 87697 87707
2498.3289 87681 87629 87567 87505 87448 87395 87346 87300 87259 87223 87193
2503.6321 87170 87155 87149 87149 87149 87141 87122 87093 87059 87031 87015
2508.9355 87012 87018 87023 87020 87003 86969 86922 86870 86824 86793 86782
2514.2388 86786 86795 86797 86783 86751 86708 86663 86626 86597 86571 86541
2519.5420 86501 86455 86410 86373 86348 86328 86304 86269 86225 86180 86149
2524.8452 86141 86155 86183 86213 86235 86243 86238 86220 86188 86139 86074
2530.1487 85997 85919 85850 85799 85768 85750 85736 85714 85684 85648 85616
2535.4519 85601 85608 85633 85664 85686 85680 85638 85566 85477 85394 85336
2540.7551 85311 85315 85335 85352 85354 85335 85297 85247 85194 85148 85123
2546.0583 85126 85159 85212 85266 85301 85312 85314 85331 85386 85482 85602
2551.3618 85716 85803 85857 85888 85913 85942 85980 86030 86094 86176 86273
2556.6650 86370 86450 86496 86507 86493 86472 86460 86463 86478 86502 86532
2561.9683 86570 86616 86666 86711 86739 86739 86708 86654 86591 86537 86502
2567.2715 86485 86474 86457 86433 86413 86411 86437 86483 86526 86542 86516
2572.5750 86451 86364 86270 86178 86090 86005 85925 85858 85809 85780 85763
2577.8782 85746 85720 85686 85652 85630 85627 85642 85666 85680 85669 85622
2583.1814 85542 85445 85354 85290 85262 85268 85293 85322 85344 85359 85372
2588.4849 85388 85412 85447 85496 85564 85657 85772 85904 86043 86181 86315
2593.7881 86445 86570 86689 86794 86878 86935 86968 86989 87012 87049 87104
2599.0913 87168 87228 87271 87294 87302 87312 87336 87378 87429 87475 87502
2604.3945 87508 87500 87493 87497 87515 87539 87556 87553 87528 87488 87450
2609.6980 87427 87425 87439 87455 87460 87446 87418 87381 87345 87314 87287
2615.0012 87265 87248 87238 87240 87252 87268 87283 87291 87288 87275 87252
2620.3044 87223 87187 87149 87115 87091 87078 87075 87073 87064 87045 87018
2625.6077 86988 86962 86941 86921 86898 86864 86819 86767 86712 86665 86633
2630.9111 86617 86618 86629 86642 86649 86646 86631 86607 86577 86544 86512
2636.2144 86480 86450 86422 86398 86377 86359 86342 86325 86306 86287 86270
2641.5176 86259 86253 86248 86239 86221 86195 86160 86120 86078 86038 86005
2646.8208 85987 85989 86010 86039 86059 86056 86026 85979 85934 85910 85912
2652.1243 85932 85953 85959 85945 85917 85892 85885 85902 85940 85983 86015
2657.4275 86022 86001 85959 85907 85859 85826 85814 85823 85850 85883 85914
2662.7307 85934 85943 85946 85951 85960 85971 85977 85973 85957 85938 85925
2668.0339 85928 85946 85973 85996 86007 86004 85994 85992 86008 86048 86108
2673.3374 86178 86245 86302 86345 86378 86405 86430 86454 86477 86501 86526
2678.6406 86553 86580 86601 86610 86601 86574 86531 86480 86429 86383 86345
2683.9438 86312 86283 86256 86233 86215 86203 86197 86192 86187 86179 86169
2689.2471 86159 86148 86137 86126 86113 86096 86072 86041 86006 85972 85946
2694.5505 85935 85938 85953 85974 85998 86021 86042 86060 86074 86086 86097
2699.8538 86113 86137 86168 86204 86244 86286 86336 86399 86476 86564 86656
2705.1570 86748 86837 86927 87022 87123 87228 87329 87423 87511 87597 87690
2710.4602 87793 87903 88015 88118 88205 88273 88321 88354 88375 88391 88408
2715.7637 88430 88458 88492 88529 88563 88590 88609 88620 88626 88634 88650
2721.0669 88674 88702 88728 88742 88740 88722 88696 88669 88649 88638 88639
2726.3701 88649 88666 88688 88712 88733 88751 88764 88770 88769 88759 88736
2731.6733 88705 88669 88637 88614 88601 88593 88580 88558 88527 88494 88470
2736.9768 88460 88465 88481 88500 88515 88520 88511 88491 88462 88429 88399
2742.2800 88375 88357 88343 88330 88315 88297 88277 88257 88236 88214 88189
2747.5833 88160 88128 88095 88064 88036 88010 87987 87965 87944 87926 87914
2752.8865 87906 87900 87890 87872 87845 87811 87775 87745 87725 87716 87715
2758.1899 87714 87709 87695 87673 87646 87619 87599 87588 87587 87596 87613
2763.4932 87635 87659 87678 87686 87678 87657 87630 87607 87598 87605 87624
2768.7964 87645 87656 87650 87628 87596 87564 87542 87535 87540 87550 87558
2774.0996 87557 87543 87519 87491 87463 87437 87413 87386 87356 87323 87292
2779.4031 87269 87257 87253 87253 87248 87232 87204 87166 87123 87081 87043
2784.7063 87008 86972 86932 86890 86850 86818 86797 86787 86785 86785 86783
2790.0095 86773 86753 86722 86682 86639 86602 86577 86564 86557 86544 86516
2795.3127 86470 86413 86353 86301 86259 86227 86201 86180 86165 86157 86154
2800.6162 86153 86145 86126 86095 86058 86021 85992 85972 85957 85943 85922
2805.9194 85894 85861 85827 85797 85772 85752 85734 85714 85693 85668 85643
2811.2227 85617 85592 85567 85541 85515 85493 85479 85480 85496 85521 85541
2816.5259 85541 85513 85459 85391 85325 85274 85241 85225 85218 85219 85224
2821.8293 85235 85251 85266 85277 85278 85268 85250 85226 85202 85184 85174
2827.1326 85177 85187 85199 85202 85190 85163 85128 85099 85086 85092 85114
2832.4358 85142 85170 85197 85227 85263 85302 85335 85352 85347 85330 85314
2837.7390 85317 85347 85401 85467 85531 85584 85625 85659 85691 85724 85760
2843.0425 85795 85830 85863 85896 85928 85958 85980 85992 85995 85989 85981
2848.3457 85975 85970 85967 85960 85947 85929 85908 85889 85879 85879 85885
2853.6489 85891 85889 85876 85851 85820 85792 85770 85753 85736 85712 85681
2858.9521 85646 85615 85596 85592 85602 85617 85632 85639 85635 85624 85610
2864.2556 85600 85597 85598 85598 85591 85578 85565 85561 85567 85580 85593
2869.5588 85601 85603 85606 85613 85625 85641 85657 85676 85700 85731 85766
2874.8621 85797 85821 85840 85861 85893 85935 85979 86012 86027 86023 86008
2880.1653 85993 85984 85985 85997 86024 86068 86125 86184 86228 86244 86229
2885.4688 86191 86150 86121 86113 86121 86136 86151 86160 86168 86178 86193
2890.7720 86213 86239 86270 86309 86354 86400 86436 86454 86451 86433 86411
2896.0752 86397 86400 86419 86450 86487 86525 86561 86593 86620 86638 86646
2901.3784 86643 86635 86626 86623 86627 86637 86647 86654 86660 86671 86698
2906.6819 86744 86804 86865 86912 86935 86933 86917 86900 86893 86902 86924
2911.9851 86954 86987 87018 87048 87076 87104 87135 87166 87194 87214 87223
2917.2883 87223 87219 87222 87234 87256 87285 87315 87349 87388 87438 87495
2922.5916 87549 87586 87598 87584 87556 87527 87507 87499 87498 87499 87497
2927.8950 87492 87488 87490 87499 87515 87533 87546 87547 87530 87495 87450
2933.1982 87405 87372 87356 87353 87354 87351 87336 87308 87270 87226 87181
2938.5015 87136 87089 87039 86984 86930 86881 86848 86839 86855 86891 86935
2943.8047 86976 87009 87034 87056 87079 87104 87126 87139 87139 87126 87104
2949.1082 87079 87057 87042 87034 87032 87030 87026 87017 87001 86982 86961
2954.4114 86938 86915 86891 86870 86855 86851 86860 86877 86896 86911 86918
2959.7146 86919 86918 86917 86916 86915 86915 86917 86924 86935 86942 86939
2965.0178 86923 86900 86883 86886 86913 86960 87011 87052 87076 87084 87086
2970.3213 87092 87105 87125 87145 87158 87162 87159 87153 87149 87146 87139
2975.6245 87126 87105 87083 87074 87086 87122 87173 87225 87262 87279 87279
2980.9277 87269 87260 87253 87246 87237 87226 87218 87218 87230 87249 87267
2986.2310 87276 87273 87262 87250 87244 87247 87258 87276 87299 87325 87351
2991.5344 87372 87382 87373 87342 87293 87234 87176 87132 87109 87109 87127
2996.8376 87158 87194 87229 87260 87282 87294 87296 87293 87291 87296 87314
3002.1409 87346 87391 87442 87494 87538 87568 87584 87587 87582 87574 87567
3007.4441 87561 87559 87561 87573 87596 87628 87661 87684 87688 87673 87645
3012.7476 87614 87591 87581 87586 87598 87609 87611 87603 87589 87581 87587
3018.0508 87610 87643 87677 87701 87713 87714 87709 87701 87695 87694 87703
3023.3540 87725 87760 87796 87818 87814 87781 87732 87689 87676 87704 87771
3028.6572 87863 87959 88043 88104 88143 88165 88176 88182 88186 88189 88191
3033.9607 88192 88192 88192 88194 88199 88208 88221 88234 88243 88246 88242
3039.2639 88238 88239 88253 88281 88320 88367 88417 88465 88506 88538 88560
3044.5671 88579 88602 88639 88691 88750 88799 88820 88807 88770 88728 88700
3049.8704 88697 88715 88746 88781 88814 88847 88882 88915 88942 88958 88960
3055.1738 88950 88933 88911 88886 88861 88837 88818 88810 88816 88841 88884
3060.4771 88944 89014 89085 89147 89192 89215 89212 89187 89149 89109 89082
3065.7803 89077 89090 89108 89117 89108 89088 89078 89096 89150 89227 89301
3071.0835 89347 89351 89322 89276 89234 89205 89189 89179 89171 89168 89177
3076.3870 89206 89258 89328 89405 89474 89525 89557 89582 89615 89665 89732
3081.6902 89801 89854 89880 89881 89870 89863 89869 89882 89894 89895 89885
3086.9934 89873 89863 89854 89839 89808 89763 89715 89683 89684 89728 89813
3092.2966 89928 90058 90190 90309 90405 90469 90502 90508 90499 90488 90483
3097.6001 90490 90507 90534 90568 90609 90652 90693 90724 90740 90741 90733
3102.9033 90723 90722 90735 90759 90792 90829 90870 90914 90964 91017 91065
3108.2065 91100 91115 91109 91091 91072 91060 91061 91071 91088 91105 91123
3113.5098 91144 91167 91191 91212 91226 91235 91243 91259 91283 91316 91351
3118.8132 91382 91405 91418 91422 91419 91412 91408 91413 91434 91470 91514
3124.1165 91555 91587 91609 91628 91651 91681 91711 91730 91728 91704 91666
3129.4197 91630 91608 91608 91631 91673 91728 91792 91857 91914 91952 91965
3134.7229 91953 91924 91892 91870 91867 91887 91926 91978 92037 92092 92137
3140.0264 92165 92173 92160 92135 92110 92099 92114 92156 92215 92273 92309
3145.3296 92314 92294 92268 92259 92279 92324 92377 92419 92441 92446 92443
3150.6328 92441 92444 92448 92447 92440 92428 92417 92410 92408 92409 92415
3155.9360 92425 92443 92469 92502 92540 92579 92619 92657 92694 92725 92744
3161.2395 92745 92726 92691 92653 92627 92624 92645 92683 92725 92758 92776
3166.5427 92782 92780 92777 92778 92787 92805 92829 92851 92863 92859 92844
3171.8459 92831 92835 92872 92941 93035 93132 93214 93263 93274 93250 93202
3177.1492 93144 93088 93043 93009 92988 92980 92992 93026 93084 93158 93235
3182.4526 93304 93359 93402 93437 93467 93492 93509 93514 93507 93491 93469
3187.7559 93449 93438 93441 93457 93478 93496 93504 93504 93505 93516 93537
3193.0591 93561 93577 93575 93557 93533 93519 93528 93566 93626 93694 93752
3198.3623 93784 93784 93758 93719 93685 93669 93674 93693 93715 93729 93727
3203.6658 93705 93667 93618 93568 93533 93523 93543 93583 93628 93664 93685
3208.9690 93698 93719 93760 93823 93898 93967 94015 94033 94021 93988 93947
3214.2722 93911 93887 93874 93868 93859 93845 93826 93809 93804 93814 93843
3219.5754 93886 93942 94007 94075 94138 94184 94203 94192 94161 94127 94106
3224.8789 94110 94136 94177 94219 94253 94273 94279 94278 94276 94280 94293
3230.1821 94314 94340 94365 94384 94395 94396 94389 94379 94372 94375 94391
3235.4854 94420 94455 94483 94494 94484 94458 94426 94401 94391 94397 94417
3240.7886 94444 94474 94507 94546 94594 94645 94689 94711 94702 94657 94587
3246.0920 94509 94442 94401 94392 94414 94459 94512 94556 94578 94573 94549
3251.3953 94522 94514 94540 94598 94674 94743 94784 94791 94773 94749 94737
3256.6985 94747 94777 94818 94858 94888 94902 94896 94871 94831 94785 94745
3262.0017 94720 94717 94734 94763 94793 94817 94833 94845 94859 94880 94908
3267.3052 94936 94957 94964 94950 94914 94860 94801 94750 94726 94743 94801
3272.6084 94891 94990 95070 95110 95106 95066 95013 94969 94948 94952 94973
3277.9116 94997 95017 95031 95043 95063 95094 95135 95174 95197 95190 95147
3283.2148 95072 94979 94888 94817 94774 94761 94774 94807 94852 94899 94937
3288.5183 94956 94956 94943 94936 94950 94992 95055 95121 95171 95193 95187
3293.8215 95162 95125 95081 95031 94979 94929 94887 94858 94841 94831 94829
3299.1248 94838 94868 94926 95009 95103 95188 95247 95273 95271 95255 95240
3304.4280 95232 95231 95232 95227 95211 95185 95155 95133 95125 95133 95147
3309.7314 95156 95153 95140 95130 95134 95155 95186 95211 95217 95201 95172
3315.0347 95144 95125 95116 95114 95117 95127 95150 95188 95234 95276 95301
3320.3379 95307 95301 95298 95310 95336 95368 95388 95383 95350 95296 95234
3325.6411 95179 95143 95132 95148 95187 95241 95298 95349 95386 95409 95424
3330.9446 95435 95447 95459 95467 95470 95468 95464 95461 95458 95452 95441
3336.2478 95424 95405 95388 95374 95364 95356 95350 95345 95341 95335 95325
3341.5510 95312 95298 95291 95296 95319 95356 95402 95450 95498 95544 95589
3346.8542 95631 95663 95675 95658 95608 95528 95431 95333 95253 95204 95192
3352.1577 95214 95259 95312 95358 95388 95404 95414 95435 95475 95531 95589
3357.4609 95629 95639 95616 95572 95521 95476 95443 95426 95425 95441 95474
3362.7642 95517 95558 95584 95585 95564 95530 95497 95475 95470 95479 95497
3368.0674 95515 95529 95534 95533 95527 95522 95519 95518 95515 95507 95494
3373.3708 95482 95475 95478 95489 95502 95512 95518 95523 95529 95537 95542
3378.6741 95539 95524 95499 95469 95442 95424 95414 95414 95420 95431 95446
3383.9773 95465 95486 95508 95531 95552 95571 95588 95602 95610 95609 95592
3389.2805 95555 95499 95434 95374 95339 95338 95370 95421 95470 95503 95512
3394.5840 95506 95494 95488 95495 95516 95549 95585 95614 95629 95625 95602
3399.8872 95567 95526 95488 95456 95433 95418 95410 95409 95414 95427 95448
3405.1904 95478 95513 95546 95569 95572 95552 95511 95458 95405 95362 95337
3410.4937 95334 95351 95381 95415 95446 95473 95496 95520 95546 95572 95592
3415.7971 95600 95594 95575 95545 95509 95468 95427 95394 95378 95384 95404
3421.1003 95430 95453 95471 95491 95517 95547 95570 95573 95553 95517 95485
3426.4036 95474 95490 95524 95559 95578 95576 95556 95527 95499 95476 95461
3431.7068 95448 95434 95413 95385 95356 95333 95327 95339 95363 95388 95399
3437.0103 95392 95372 95351 95339 95341 95353 95372 95395 95425 95461 95498
3442.3135 95527 95540 95533 95515 95499 95491 95491 95490 95477 95447 95407
3447.6167 95375 95361 95367 95384 95400 95401 95382 95345 95300 95258 95227
3452.9199 95213 95217 95235 95262 95289 95310 95320 95321 95319 95323 95339
3458.2234 95367 95401 95428 95436 95420 95383 95337 95294 95265 95254 95255
3463.5266 95258 95252 95238 95222 95217 95235 95276 95326 95367 95382 95366
3468.8298 95328 95284 95245 95219 95205 95201 95207 95222 95243 95257 95254
3474.1331 95228 95187 95153 95146 95171 95214 95248 95246 95198 95117 95027
3479.4365 94955 94914 94906 94921 94946 94974 95000 95021 95035 95036 95020
3484.7397 94981 94921 94845 94765 94697 94655 94647 94667 94698 94722 94728
3490.0430 94720 94710 94710 94727 94756 94790 94819 94841 94862 94888 94922
3495.3462 94956 94980 94983 94969 94955 94962 95007 95092 95196 95291 95347
3500.6497 95354 95318 95263 95215 95189 95185 95193 95200 95200 95192 95177
3505.9529 95155 95127 95098 95076 95069 95084 95119 95165 95214 95261 95304
3511.2561 95340 95362 95364 95341 95294 95232 95165 95103 95051 95013 94992
3516.5593 94992 95014 95055 95105 95153 95184 95192 95179 95153 95128 95116
3521.8628 95127 95157 95197 95230 95241 95228 95193 95144 95092 95046 95017
3527.1660 95012 95033 95074 95125 95174 95211 95229 95229 95218 95207 95205
3532.4692 95216 95232 95241 95228 95190 95133 95073 95030 95015 95030 95065
3537.7725 95112 95166 95224 95284 95338 95379 95396 95385 95347 95286 95213
3543.0759 95143 95091 95069 95085 95132 95197 95257 95293 95293 95260 95206
3548.3792 95151 95110 95090 95087 95094 95105 95119 95140 95173 95211 95241
3553.6824 95248 95230 95198 95168 95155 95161 95176 95186 95178 95152 95119
3558.9856 95093 95089 95114 95167 95238 95309 95365 95389 95378 95338 95282
3564.2891 95217 95143 95050 94936 94825 94765 94794 94899 95026 95131 95195
3569.5923 95227 95242 95254 95272 95298 95330 95362 95385 95386 95355 95288
3574.8955 95198 95107 95037 94999 94986 94984 94978 94967 94957 94961 94987
3580.1990 95032 95083 95127 95155 95168 95173 95176 95184 95200 95220 95246
3585.5022 95276 95308 95332 95330 95287 95209 95121 95050 95010 94997 95000
3590.8054 95006 95009 95010 95021 95051 95102 95164 95217 95239 95217 95155
3596.1086 95069 94977 94894 94826 94779 94756 94762 94797 94857 94931 95009
3601.4121 95079 95138 95183 95218 95244 95265 95284 95305 95331 95358 95379
3606.7153 95380 95355 95312 95262 95219 95184 95148 95109 95072 95054 95072
3612.0186 95135 95228 95309 95343 95328 95288 95246 95215 95188 95155 95107
3617.3218 95044 94979 94928 94907 94917 94951 95000 95058 95119 95174 95215
3622.6252 95232 95222 95189 95144 95097 95055 95013 94960 94889 94800 94714
3627.9285 94683 94768 94950 95098 95143 95126 95104 95106 95139 95193 95246
3633.2317 95272 95262 95228 95187 95146 95099 95040 94975 94922 94905 94939
3638.5349 95014 95103 95174 95206 95191 95139 95068 95005 94967 94955 94955
3643.8384 94952 94937 94919 94922 94983 95133 95365 95595 95710 95656 95463
3649.1416 95208 94990 94890 94907 94971 95020 95035 95019 94978 94918 94843
3654.4448 94763 94702 94705 94803 94974 95143 95259 95316 95327 95310 95280
3659.7480 95243 95206 95173 95146 95128 95116 95105 95086 95055 95011 94960
3665.0515 94915 94881 94863 94857 94857 94858 94860 94865 94887 94938 95013
3670.3547 95077 95090 95047 94963 94857 94743 94634 94555 94560 94727 95027
3675.6580 95233 95245 95152 95033 94920 94830 94775 94764 94796 94854 94914
3680.9612 94963 94998 95022 95039 95050 95055 95047 95022 94984 94945 94921
3686.2646 94930 94985 95083 95179 95196 95101 94951 94829 94793 94854 94975
3691.5679 95089 95151 95157 95127 95078 95026 94977 94941 94924 94926 94944
3696.8711 94965 94979 94982 94980 94982 94998 95030 95073 95116 95139 95129
3702.1743 95090 95041 95001 94978 94975 94986 94998 94996 94976 94942 94911
3707.4778 94901 94923 94977 95041 95087 95101 95091 95080 95086 95107 95123
3712.7810 95120 95102 95084 95078 95088 95109 95130 95139 95131 95107 95075
3718.0842 95040 95007 94976 94946 94916 94892 94884 94903 94949 95004 95046
3723.3875 95060 95049 95023 94988 94950 94909 94867 94827 94797 94786 94794
3728.6909 94815 94836 94846 94840 94823 94812 94824 94860 94895 94906 94888
3733.9941 94857 94838 94854 94893 94913 94897 94862 94835 94830 94842 94852
3739.2974 94840 94800 94741 94689 94663 94663 94672 94660 94598 94474 94355
3744.6006 94374 94512 94647 94730 94762 94755 94725 94689 94671 94687 94727
3749.9041 94768 94802 94838 94886 94939 94966 94951 94908 94858 94817 94797
3755.2073 94799 94814 94823 94809 94769 94721 94689 94698 94758 94849 94928
3760.5105 94971 94981 94970 94951 94929 94906 94888 94886 94909 94963 95033
3765.8137 95086 95099 95072 95025 94975 94935 94914 94909 94909 94901 94887
3771.1172 94875 94878 94899 94935 94977 95016 95040 95048 95039 95017 94987
3776.4204 94956 94932 94925 94940 94974 95010 95024 95007 94970 94934 94910
3781.7236 94901 94906 94926 94963 95015 95071 95108 95102 95052 94976 94906
3787.0269 94867 94873 94919 94986 95049 95085 95083 95048 94993 94937 94896
3792.3303 94882 94895 94927 94964 94989 94993 94969 94928 94894 94893 94928
3797.6335 94973 95002 94996 94943 94845 94712 94582 94519 94556 94642 94712
3802.9368 94748 94762 94766 94765 94759 94748 94734 94729 94750 94794 94844
3808.2400 94889 94925 94951 94968 94979 94981 94972 94950 94913 94860 94800
3813.5435 94741 94697 94683 94714 94783 94852 94878 94865 94839 94818 94807
3818.8467 94805 94808 94811 94812 94814 94822 94833 94848 94866 94888 94916
3824.1499 94947 94973 94986 94980 94955 94922 94895 94878 94868 94857 94842
3829.4531 94826 94818 94830 94864 94905 94927 94923 94902 94882 94882 94910
3834.7566 94961 95015 95054 95069 95055 95004 94918 94812 94718 94656 94632
3840.0598 94637 94654 94665 94661 94648 94640 94654 94700 94769 94836 94883
3845.3630 94907 94918 94922 94926 94926 94917 94894 94860 94823 94794 94775
3850.6663 94760 94738 94701 94662 94676 94803 94996 95121 95135 95078 94996
3855.9697 94918 94863 94839 94844 94861 94871 94862 94830 94779 94718 94661
3861.2729 94624 94611 94615 94620 94623 94628 94647 94686 94733 94771 94794
3866.5762 94808 94822 94838 94850 94837 94773 94662 94573 94565 94626 94718
3871.8794 94817 94908 94979 95019 95019 94983 94927 94864 94799 94737 94687
3877.1829 94655 94644 94651 94667 94688 94710 94738 94772 94811 94845 94868
3882.4861 94873 94858 94820 94763 94701 94658 94659 94700 94747 94770 94759
3887.7893 94725 94683 94655 94661 94715 94810 94910 94957 94927 94848 94772
3893.0925 94730 94734 94774 94830 94876 94892 94869 94810 94727 94642 94586
3898.3960 94586 94643 94718 94765 94760 94713 94652 94610 94607 94635 94669
3903.6992 94686 94682 94673 94677 94701 94735 94764 94777 94770 94746 94716
3909.0024 94693 94689 94703 94730 94755 94766 94759 94738 94714 94697 94691
3914.3057 94691 94688 94676 94654 94629 94610 94605 94608 94615 94622 94628
3919.6091 94639 94658 94682 94710 94739 94770 94803 94839 94873 94895 94893
3924.9124 94865 94818 94765 94712 94665 94623 94586 94560 94553 94571 94614
3930.2156 94670 94721 94750 94750 94730 94711 94713 94738 94776 94809 94823
3935.5188 94810 94773 94721 94669 94631 94618 94637 94682 94739 94788 94813
3940.8223 94804 94771 94737 94732 94772 94836 94886 94891 94843 94758 94666
3946.1255 94600 94578 94600 94647 94694 94729 94749 94756 94750 94732 94706
3951.4287 94680 94661 94653 94656 94665 94680 94704 94740 94790 94848 94901
3956.7319 94936 94946 94927 94884 94823 94752 94676 94605 94545 94505 94490
3962.0354 94503 94540 94587 94632 94662 94674 94674 94675 94686 94707 94728
3967.3386 94738 94732 94723 94728 94762 94821 94883 94920 94915 94867 94796
3972.6418 94729 94687 94675 94687 94710 94733 94749 94756 94752 94739 94721
3977.9451 94704 94693 94694 94703 94713 94719 94716 94709 94710 94725 94754
3983.2485 94786 94803 94788 94737 94659 94575 94504 94457 94432 94420 94416
3988.5518 94424 94456 94519 94608 94700 94766 94784 94755 94697 94640 94605
3993.8550 94600 94617 94637 94643 94630 94601 94565 94532 94507 94494 94497
3999.1582 94520 94562 94616
##END= 
