##TITLE= STDCHINIDINASOLFATO
##JCAMP-DX= 4.24
##DATA TYPE= INFRARED SPECTRUM
##ORIGIN= JASCO
##OWNER= 
##DATE= 22/04/13
##TIME= 16:09:36
##SPECTROMETER/DATA SYSTEM= 
##RESOLUTION= 
##DELTAX=   0.48211674
##XUNITS= 1/CM
##YUNITS= TRANSMITTANCE
##XFACTOR= 1.00000
##YFACTOR= 1E-005
##FIRSTX=   599.7532
##LASTX=  4000.1226
##NPOINTS=     7054
##FIRSTY=      0.75449
##MAXY=      0.97473
##MINY=      0.54738
##XYDATA= (X++(Y..Y))
599.7532 75449 74901 74351 73718 72916 71920 70782 69620 68558 67692 67062
605.0565 66684 66572 66756 67260 68065 69088 70192 71240 72138 72856 73408
610.3598 73811 74060 74137 74038 73802 73503 73217 72979 72765 72508 72137
615.6631 71614 70955 70224 69496 68826 68220 67646 67060 66440 65790 65142
620.9664 64536 64014 63613 63368 63300 63405 63645 63959 64300 64678 65162
626.2697 65836 66729 67768 68803 69675 70303 70727 71074 71478 72003 72616
631.5729 73225 73733 74085 74280 74348 74327 74256 74167 74083 74000 73875
636.8762 73634 73207 72579 71818 71077 70543 70362 70588 71169 71986 72913
642.1795 73863 74808 75750 76684 77588 78427 79187 79884 80544 81172 81733
647.4828 82170 82448 82594 82688 82813 82989 83157 83220 83110 82840 82500
652.7861 82204 82031 81984 82012 82059 82106 82165 82257 82367 82430 82362
658.0894 82098 81636 81043 80434 79930 79625 79569 79768 80196 80797 81494
663.3926 82187 82759 83108 83186 83006 82610 82023 81225 80172 79036 78658
668.6959 79612 81008 82139 82904 83296 83259 82757 81859 80772 79746 78939
673.9992 78355 77912 77550 77316 77332 77703 78423 79368 80352 81219 81899
679.3025 82403 82793 83136 83483 83841 84189 84487 84719 84910 85105 85318
684.6058 85487 85484 85196 84625 83922 83300 82913 82776 82788 82824 82843
689.9091 82917 83161 83624 84224 84781 85118 85155 84939 84600 84284 84095
695.2123 84074 84201 84409 84601 84678 84575 84286 83867 83424 83083 82967
700.5156 83171 83725 84561 85512 86360 86918 87110 86985 86681 86342 86061
705.8189 85863 85732 85645 85589 85560 85547 85531 85487 85393 85228 84971
711.1222 84604 84117 83506 82759 81843 80698 79270 77552 75623 73653 71881
716.4255 70565 69924 70092 71095 72868 75269 78089 81051 83839 86195 87995
721.7288 89261 90090 90588 90849 90958 91013 91103 91278 91524 91776 91960
727.0320 92039 92038 92016 92019 92045 92044 91963 91799 91616 91512 91558
732.3353 91755 92028 92267 92393 92386 92289 92170 92080 92041 92050 92097
737.6386 92171 92254 92310 92296 92177 91960 91690 91437 91251 91131 91029
742.9419 90879 90639 90318 89961 89622 89332 89089 88870 88654 88434 88214
748.2452 88002 87816 87673 87592 87576 87602 87625 87589 87461 87237 86948
753.5485 86638 86351 86115 85941 85809 85676 85481 85176 84759 84290 83875
758.8517 83616 83550 83631 83751 83785 83645 83305 82802 82212 81621 81099
764.1550 80684 80393 80243 80267 80523 81065 81911 83017 84275 85547 86714
769.4583 87712 88539 89224 89795 90256 90594 90798 90889 90918 90955 91059
774.7616 91256 91527 91820 92066 92212 92238 92162 92023 91859 91676 91453
780.0649 91156 90779 90359 89970 89698 89598 89672 89876 90136 90386 90579
785.3682 90692 90722 90672 90558 90398 90215 90021 89812 89567 89261 88882
790.6714 88444 87981 87529 87113 86729 86348 85932 85439 84842 84119 83256
795.9747 82252 81135 79985 78942 78189 77904 78193 79036 80282 81691 83009
801.2780 84046 84726 85083 85225 85273 85312 85379 85472 85573 85678 85796
806.5813 85945 86135 86357 86585 86784 86925 86993 86994 86944 86864 86769
811.8846 86665 86555 86436 86310 86175 86029 85865 85678 85471 85257 85055
817.1879 84883 84746 84635 84530 84407 84249 84049 83805 83518 83190 82823
822.4911 82419 81976 81493 80969 80405 79804 79162 78470 77722 76929 76132
827.7944 75386 74720 74102 73438 72626 71647 70640 69895 69750 70439 71968
833.0977 74088 76396 78487 80092 81133 81688 81904 81929 81859 81738 81579
838.4010 81383 81156 80908 80644 80358 80030 79638 79171 78637 78060 77472
843.7043 76901 76371 75909 75548 75319 75240 75304 75482 75737 76043 76388
849.0076 76762 77136 77449 77616 77554 77206 76562 75649 74515 73214 71795
854.3109 70315 68845 67480 66327 65499 65087 65150 65695 66671 67976 69473
859.6141 71016 72479 73764 74806 75563 76016 76171 76067 75784 75424 75089
864.9174 74857 74775 74866 75156 75686 76499 77619 79031 80672 82453 84277
870.2207 86062 87741 89257 90561 91618 92415 92968 93313 93494 93544 93482
875.5240 93322 93082 92791 92486 92197 91942 91716 91505 91295 91084 90877
880.8273 90686 90515 90351 90175 89958 89676 89307 88837 88258 87573 86806
886.1306 86006 85242 84591 84121 83885 83908 84191 84713 85427 86259 87120
891.4338 87918 88585 89100 89482 89775 90020 90229 90393 90493 90523 90497
896.7371 90444 90390 90349 90318 90283 90232 90157 90057 89933 89780 89593
902.0404 89364 89090 88781 88458 88142 87850 87575 87291 86966 86578 86134
907.3437 85665 85211 84801 84429 84065 83660 83172 82575 81863 81051 80171
912.6470 79280 78457 77793 77367 77226 77364 77736 78275 78919 79621 80346
917.9503 81056 81705 82247 82646 82891 82989 82958 82814 82564 82213 81768
923.2535 81245 80664 80049 79420 78801 78216 77688 77234 76861 76555 76289
928.5568 76023 75713 75308 74763 74044 73143 72089 70952 69839 68881 68205
933.8601 67907 68033 68560 69410 70467 71604 72718 73739 74633 75388 75997
939.1634 76450 76735 76856 76836 76728 76596 76498 76476 76547 76703 76921
944.4667 77163 77381 77523 77552 77463 77286 77088 76949 76947 77134 77530
949.7700 78127 78885 79747 80644 81514 82310 83011 83613 84121 84532 84834
955.0732 85016 85079 85051 84977 84908 84885 84933 85062 85269 85538 85844
960.3765 86149 86417 86613 86722 86738 86668 86516 86286 85979 85596 85137
965.6798 84599 83979 83271 82476 81602 80674 79733 78850 78127 77687 77645
970.9831 78070 78944 80161 81545 82908 84102 85042 85715 86145 86372 86430
976.2864 86350 86162 85894 85575 85220 84836 84421 83976 83504 83010 82497
981.5897 81962 81401 80812 80199 79571 78935 78294 77639 76965 76268 75557
986.8929 74851 74176 73560 73031 72621 72355 72255 72321 72524 72806 73082
992.1962 73267 73298 73149 72841 72428 71977 71547 71184 70924 70800 70844
997.4995 71081 71509 72094 72769 73451 74068 74574 74961 75246 75465 75651
1002.8028 75829 76008 76178 76310 76366 76312 76122 75789 75323 74743 74070
1008.1061 73324 72515 71652 70749 69832 68946 68147 67489 66998 66663 66438
1013.4094 66256 66052 65778 65410 64931 64328 63581 62680 61633 60484 59315
1018.7126 58232 57350 56768 56552 56726 57277 58157 59300 60623 62033 63433
1024.0160 64730 65844 66717 67317 67643 67711 67559 67234 66793 66289 65765
1029.3192 65244 64731 64215 63681 63121 62537 61932 61314 60681 60032 59363
1034.6226 58678 57986 57307 56664 56081 55580 55181 54899 54746 54738 54884
1039.9258 55185 55630 56184 56796 57406 57953 58388 58681 58819 58813 58690
1045.2291 58500 58305 58175 58174 58350 58723 59285 60016 60888 61878 62966
1050.5323 64128 65330 66526 67668 68710 69622 70386 71002 71479 71832 72068
1055.8357 72188 72177 72022 71716 71281 70759 70204 69668 69190 68794 68505
1061.1389 68347 68347 68520 68855 69313 69834 70356 70830 71223 71518 71701
1066.4423 71759 71679 71448 71067 70547 69915 69212 68491 67810 67229 66794
1071.7455 66534 66452 66530 66737 67029 67359 67666 67883 67941 67792 67431
1077.0488 66906 66317 65786 65426 65316 65480 65893 66483 67161 67831 68423
1082.3521 68894 69232 69442 69529 69494 69328 69027 68600 68075 67489 66878
1087.6554 66265 65661 65063 64469 63879 63297 62723 62156 61594 61045 60529
1092.9586 60081 59738 59530 59465 59532 59709 59968 60287 60644 61020 61396
1098.2620 61760 62105 62440 62779 63135 63520 63940 64397 64891 65420 65975
1103.5652 66543 67112 67669 68208 68723 69210 69661 70072 70442 70774 71073
1108.8685 71341 71573 71760 71894 71970 71990 71960 71888 71784 71662 71538
1114.1718 71425 71332 71259 71195 71127 71045 70951 70859 70792 70767 70795
1119.4751 70879 71016 71207 71457 71771 72149 72575 73030 73490 73943 74391
1124.7783 74840 75294 75746 76175 76564 76904 77206 77500 77822 78198 78636
1130.0817 79125 79640 80151 80638 81086 81491 81850 82160 82414 82604 82722
1135.3849 82764 82737 82657 82553 82455 82388 82364 82376 82404 82422 82409
1140.6882 82348 82233 82060 81836 81582 81330 81124 81002 80992 81107 81348
1145.9915 81716 82210 82826 83547 84343 85173 85997 86786 87522 88196 88806
1151.2948 89349 89828 90248 90615 90935 91210 91439 91623 91769 91887 91990
1156.5980 92086 92175 92246 92287 92288 92244 92154 92017 91828 91581 91277
1161.9014 90930 90569 90233 89959 89768 89666 89647 89704 89835 90044 90333
1167.2046 90692 91094 91501 91878 92200 92464 92682 92873 93048 93207 93338
1172.5079 93427 93466 93458 93419 93364 93298 93214 93094 92925 92701 92431
1177.8112 92129 91808 91476 91138 90802 90483 90209 90007 89900 89901 90012
1183.1145 90231 90545 90934 91370 91822 92266 92685 93074 93431 93756 94041
1188.4177 94278 94465 94603 94702 94769 94803 94800 94750 94649 94501 94311
1193.7211 94086 93828 93534 93198 92821 92411 91983 91557 91152 90774 90419
1199.0243 90070 89707 89314 88895 88470 88074 87745 87517 87410 87435 87595
1204.3276 87887 88303 88825 89425 90062 90691 91270 91775 92198 92547 92836
1209.6309 93074 93264 93401 93480 93499 93460 93368 93221 93016 92748 92412
1214.9342 92012 91551 91030 90445 89789 89056 88245 87366 86435 85463 84455
1220.2374 83405 82296 81107 79823 78436 76949 75369 73714 72008 70298 68652
1225.5408 67161 65932 65063 64635 64697 65258 66289 67723 69464 71395 73387
1230.8440 75317 77079 78596 79836 80806 81548 82119 82561 82886 83068 83052
1236.1473 82778 82205 81326 80173 78810 77326 75835 74470 73369 72654 72412
1241.4506 72676 73425 74596 76102 77850 79753 81728 83697 85589 87341 88902
1246.7539 90242 91350 92233 92913 93417 93770 93993 94107 94130 94077 93962
1252.0571 93791 93565 93284 92952 92578 92182 91789 91433 91147 90964 90902
1257.3605 90972 91164 91463 91842 92273 92727 93181 93620 94039 94442 94832
1262.6637 95209 95569 95901 96191 96422 96579 96649 96638 96576 96519 96525
1267.9670 96630 96824 97056 97257 97373 97383 97297 97147 96965 96771 96571
1273.2703 96365 96153 95939 95734 95549 95393 95277 95205 95175 95181 95215
1278.5736 95270 95347 95448 95573 95715 95857 95981 96071 96116 96112 96060
1283.8768 95954 95791 95565 95276 94926 94525 94089 93635 93185 92752 92345
1289.1802 91963 91598 91242 90889 90542 90205 89886 89591 89321 89081 88880
1294.4834 88729 88648 88656 88766 88977 89272 89612 89952 90242 90449 90559
1299.7867 90580 90539 90467 90391 90323 90262 90197 90111 89992 89833 89635
1305.0900 89410 89182 88985 88862 88853 88986 89261 89650 90100 90548 90942
1310.3933 91250 91465 91594 91649 91645 91592 91499 91376 91234 91085 90940
1315.6965 90811 90710 90654 90659 90741 90910 91165 91489 91856 92232 92584
1320.9999 92888 93129 93300 93407 93466 93500 93532 93576 93637 93713 93800
1326.3031 93895 93995 94100 94206 94311 94407 94489 94548 94572 94554 94491
1331.6064 94393 94278 94171 94087 94028 93980 93923 93839 93723 93578 93414
1336.9097 93233 93028 92791 92522 92242 91999 91841 91795 91847 91959 92089
1342.2130 92210 92304 92359 92365 92319 92226 92097 91942 91771 91590 91403
1347.5162 91211 91015 90812 90593 90345 90059 89730 89362 88963 88542 88105
1352.8196 87658 87210 86779 86388 86060 85807 85630 85523 85484 85514 85624
1358.1228 85822 86117 86513 87001 87559 88153 88749 89337 89928 90542 91174
1363.4261 91779 92302 92716 93029 93267 93455 93614 93764 93928 94135 94409
1368.7294 94755 95145 95535 95877 96144 96328 96439 96493 96513 96519 96531
1374.0327 96558 96595 96625 96633 96611 96558 96478 96378 96267 96157 96063
1379.3359 95999 95971 95983 96030 96102 96189 96279 96364 96437 96489 96508
1384.6393 96483 96408 96286 96127 95957 95813 95720 95670 95629 95561 95445
1389.9425 95272 95049 94791 94518 94245 93968 93674 93346 92987 92638 92375
1395.2458 92248 92241 92295 92363 92430 92508 92624 92799 93022 93250 93444
1400.5491 93590 93695 93765 93796 93781 93712 93592 93439 93289 93177 93116
1405.8524 93083 93040 92957 92827 92660 92479 92304 92146 92000 91851 91690
1411.1556 91514 91327 91137 90948 90762 90577 90394 90211 90026 89840 89655
1416.4590 89478 89308 89142 88965 88764 88541 88316 88114 87927 87733 87513
1421.7622 87252 86938 86562 86128 85657 85177 84695 84190 83620 82957 82200
1427.0656 81379 80544 79754 79070 78568 78341 78445 78837 79401 80032 80690
1432.3688 81379 82103 82833 83518 84128 84685 85274 86032 87052 88187 89089
1437.6721 89603 89831 89905 89898 89830 89704 89521 89294 89034 88755 88463
1442.9753 88163 87862 87573 87305 87065 86849 86648 86449 86248 86051 85878
1448.2787 85750 85665 85605 85560 85534 85542 85601 85708 85829 85912 85918
1453.5819 85831 85657 85410 85102 84742 84337 83918 83556 83331 83258 83295
1458.8853 83392 83523 83677 83847 84030 84214 84382 84512 84585 84588 84516
1464.1885 84367 84154 83902 83630 83329 82975 82545 82033 81461 80881 80350
1469.4918 79909 79566 79310 79146 79119 79336 79878 80625 81327 81868 82288
1474.7950 82676 83120 83680 84351 85045 85668 86188 86626 87011 87357 87661
1480.0984 87907 88084 88187 88215 88170 88056 87887 87693 87507 87365 87296
1485.4016 87324 87475 87760 88151 88565 88907 89127 89234 89280 89332 89431
1490.7050 89558 89658 89700 89679 89605 89492 89349 89175 88957 88672 88308
1496.0082 87897 87510 87189 86909 86613 86261 85854 85427 85004 84568 84075
1501.3115 83486 82797 82050 81303 80585 79878 79126 78258 77209 75992 74897
1506.6147 74505 74954 75855 77005 78378 79912 81489 83008 84448 85855 87290
1511.9181 88755 90162 91385 92353 93082 93634 94073 94436 94750 95039 95332
1517.2213 95627 95883 96066 96164 96181 96122 96001 95876 95874 96078 96378
1522.5247 96628 96790 96877 96917 96935 96958 97004 97072 97144 97201 97243
1527.8279 97280 97326 97379 97429 97463 97473 97457 97419 97361 97286 97201
1533.1312 97130 97108 97149 97231 97318 97388 97427 97430 97392 97308 97171
1538.4344 96978 96758 96597 96568 96617 96673 96721 96767 96811 96840 96839
1543.7378 96810 96775 96768 96814 96901 96991 97046 97047 96988 96863 96671
1549.0410 96427 96178 95988 95892 95861 95842 95791 95686 95515 95289 95059
1554.3444 94905 94855 94860 94859 94815 94704 94491 94125 93585 93124 93203
1559.6476 93631 94013 94269 94431 94526 94569 94564 94516 94432 94333 94254
1564.9509 94219 94226 94246 94247 94212 94132 94005 93827 93610 93403 93267
1570.2542 93208 93177 93126 93032 92887 92695 92473 92239 92003 91771 91562
1575.5575 91441 91505 91752 92034 92242 92361 92406 92388 92312 92178 91991
1580.8607 91754 91470 91138 90756 90329 89864 89378 88897 88455 88094 87851
1586.1641 87749 87791 87957 88214 88519 88834 89121 89346 89483 89511 89427
1591.4674 89252 89027 88813 88676 88680 88868 89248 89788 90422 91078 91696
1596.7706 92233 92665 92983 93188 93295 93325 93300 93240 93156 93052 92929
1602.0740 92787 92625 92449 92261 92061 91839 91585 91287 90945 90565 90161
1607.3772 89743 89309 88847 88338 87776 87170 86541 85906 85258 84571 83808
1612.6805 82957 82041 81115 80226 79388 78583 77796 77102 76719 76808 77249
1617.9838 77851 78559 79409 80433 81602 82819 83972 85010 85974 86983 88154
1623.2871 89462 90688 91622 92248 92656 92932 93125 93266 93376 93476 93568
1628.5903 93640 93674 93665 93609 93504 93348 93140 92892 92623 92349 92084
1633.8937 91842 91660 91618 91796 92132 92458 92693 92857 92980 93070 93122
1639.1969 93128 93093 93037 92993 93003 93092 93257 93459 93647 93782 93848
1644.5002 93849 93800 93729 93669 93659 93732 93884 94081 94275 94429 94522
1649.8035 94551 94527 94461 94365 94246 94110 94017 94106 94338 94539 94685
1655.1068 94798 94890 94964 95025 95079 95137 95203 95275 95341 95388 95405
1660.4100 95392 95355 95314 95295 95331 95429 95557 95673 95753 95793 95797
1665.7134 95768 95708 95619 95501 95352 95178 95002 94870 94806 94787 94770
1671.0166 94731 94668 94596 94525 94455 94376 94274 94140 93988 93863 93801
1676.3199 93781 93763 93725 93662 93577 93483 93404 93367 93384 93438 93494
1681.6232 93520 93493 93396 93225 93034 93027 93328 93686 93922 94051 94116
1686.9265 94150 94170 94193 94234 94299 94391 94497 94601 94687 94744 94767
1692.2297 94757 94721 94669 94606 94538 94475 94440 94477 94587 94702 94766
1697.5331 94773 94733 94647 94516 94377 94367 94604 94889 95052 95110 95109
1702.8363 95075 95024 94969 94924 94907 94936 95020 95147 95281 95383 95431
1708.1396 95420 95362 95274 95182 95106 95056 95026 94996 94949 94875 94771
1713.4429 94645 94517 94418 94366 94350 94337 94300 94241 94205 94278 94488
1718.7462 94746 94962 95113 95204 95247 95248 95218 95170 95124 95093 95085
1724.0494 95093 95105 95114 95117 95116 95111 95096 95061 94996 94900 94784
1729.3528 94671 94592 94559 94555 94550 94521 94456 94354 94230 94135 94132
1734.6560 94196 94258 94293 94301 94285 94243 94169 94066 93946 93853 93837
1739.9594 93914 94034 94134 94182 94177 94135 94083 94052 94055 94077 94087
1745.2626 94066 94006 93915 93813 93726 93673 93656 93657 93657 93651 93659
1750.5659 93709 93820 93970 94113 94209 94250 94248 94215 94165 94107 94053
1755.8691 94013 93998 94015 94055 94104 94142 94158 94147 94108 94049 93990
1761.1725 93961 93990 94068 94154 94215 94246 94255 94255 94254 94249 94231
1766.4757 94194 94141 94089 94068 94086 94124 94148 94129 94056 93934 93800
1771.7791 93731 93791 93938 94075 94149 94164 94145 94123 94124 94157 94210
1777.0823 94259 94285 94278 94242 94189 94136 94103 94104 94136 94179 94212
1782.3856 94221 94200 94153 94093 94041 94020 94043 94104 94182 94256 94308
1787.6888 94322 94293 94222 94121 94006 93895 93806 93760 93781 93876 94018
1792.9922 94148 94226 94245 94219 94171 94127 94107 94116 94141 94161 94163
1798.2954 94146 94121 94098 94084 94077 94069 94062 94068 94100 94166 94257
1803.5988 94351 94425 94466 94469 94441 94398 94356 94328 94315 94310 94300
1808.9020 94278 94245 94208 94176 94156 94146 94140 94136 94136 94144 94161
1814.2053 94183 94202 94212 94211 94204 94202 94209 94228 94251 94272 94287
1819.5085 94297 94305 94312 94313 94299 94263 94205 94132 94058 94001 93984
1824.8119 94024 94118 94234 94331 94383 94384 94337 94251 94148 94068 94053
1830.1151 94111 94202 94282 94334 94363 94382 94403 94429 94451 94453 94425
1835.4185 94370 94305 94258 94252 94290 94351 94400 94409 94368 94287 94188
1840.7217 94095 94021 93965 93915 93857 93781 93695 93633 93628 93682 93771
1846.0250 93871 93964 94037 94083 94104 94116 94133 94160 94185 94186 94150
1851.3282 94080 94002 93946 93931 93951 93979 93983 93950 93888 93822 93779
1856.6316 93773 93800 93845 93890 93924 93946 93962 93980 94006 94038 94069
1861.9348 94086 94078 94042 93987 93927 93874 93830 93785 93722 93630 93509
1867.2382 93377 93262 93196 93193 93246 93322 93391 93440 93473 93501 93538
1872.5414 93589 93652 93714 93758 93772 93755 93720 93688 93678 93696 93737
1877.8447 93786 93826 93845 93840 93818 93785 93751 93718 93691 93673 93668
1883.1479 93679 93708 93749 93797 93844 93882 93904 93900 93863 93793 93700
1888.4513 93613 93571 93606 93715 93855 93975 94039 94041 93998 93943 93908
1893.7545 93912 93948 93985 93988 93946 93878 93822 93809 93846 93914 93977
1899.0579 94006 93991 93946 93897 93869 93875 93914 93968 94013 94029 94005
1904.3611 93953 93895 93855 93833 93810 93752 93638 93476 93306 93175 93115
1909.6644 93127 93184 93248 93293 93307 93295 93269 93244 93238 93255 93286
1914.9677 93307 93300 93264 93227 93228 93300 93428 93552 93609 93585 93515
1920.2710 93439 93379 93323 93236 93094 92909 92746 92671 92710 92839 93006
1925.5742 93161 93278 93355 93409 93459 93516 93577 93633 93679 93717 93749
1930.8776 93777 93792 93781 93730 93646 93559 93515 93555 93686 93864 94008
1936.1808 94040 93928 93712 93478 93318 93279 93345 93457 93556 93615 93639
1941.4841 93647 93640 93599 93502 93362 93228 93162 93203 93346 93535 93680
1946.7874 93706 93598 93415 93254 93208 93325 93572 93852 94032 94005 93732
1952.0907 93261 92710 92220 91917 91873 92090 92494 92953 93317 93472 93386
1957.3939 93124 92809 92569 92472 92505 92604 92702 92778 92856 92968 93114
1962.6973 93254 93328 93295 93164 92984 92826 92752 92789 92919 93081 93205
1968.0005 93255 93253 93262 93342 93515 93748 93970 94115 94153 94090 93946
1973.3038 93730 93447 93126 92832 92654 92664 92879 93252 93685 94055 94249
1978.6071 94199 93908 93460 92996 92666 92573 92738 93094 93521 93897 94143
1983.9104 94234 94198 94096 93998 93960 93998 94080 94128 94054 93806 93409
1989.2136 92949 92529 92225 92072 92066 92173 92341 92525 92704 92890 93100
1994.5170 93330 93544 93674 93655 93469 93168 92855 92637 92569 92631 92745
1999.8202 92826 92839 92824 92866 93036 93327 93639 93822 93769 93489 93123
2005.1235 92875 92899 93210 93665 94043 94177 94066 93867 93779 93911 94221
2010.4268 94551 94736 94702 94494 94219 93952 93684 93346 92890 92350 91840
2015.7301 91491 91377 91470 91677 91910 92142 92402 92728 93111 93492 93787
2021.0333 93931 93905 93739 93503 93282 93144 93100 93089 92999 92744 92331
2026.3367 91893 91627 91683 92069 92637 93153 93411 93331 92985 92536 92156
2031.6399 91965 92003 92238 92583 92927 93164 93233 93135 92926 92688 92501
2036.9432 92413 92433 92531 92650 92732 92741 92676 92582 92519 92539 92649
2042.2465 92809 92962 93064 93113 93146 93205 93304 93406 93442 93353 93131
2047.5498 92823 92509 92256 92093 92017 92013 92076 92205 92384 92573 92710
2052.8530 92739 92637 92429 92178 91954 91807 91753 91778 91851 91929 91975
2058.1563 91967 91912 91849 91829 91894 92048 92257 92460 92600 92644 92584
2063.4597 92431 92210 91958 91724 91552 91470 91472 91528 91601 91671 91739
2068.7629 91823 91930 92044 92137 92194 92228 92278 92382 92541 92706 92793
2074.0662 92735 92517 92198 91887 91690 91668 91813 92056 92297 92451 92475
2079.3694 92377 92204 92020 91878 91810 91815 91868 91928 91962 91952 91903
2084.6729 91833 91760 91691 91623 91551 91483 91438 91437 91478 91534 91557
2089.9761 91507 91384 91232 91120 91104 91196 91359 91528 91644 91677 91632
2095.2793 91534 91415 91303 91219 91179 91186 91227 91267 91269 91205 91078
2100.5825 90919 90774 90685 90673 90730 90826 90918 90973 90978 90954 90935
2105.8860 90952 91003 91055 91061 90995 90871 90734 90634 90598 90616 90656
2111.1892 90691 90708 90712 90706 90687 90650 90596 90540 90504 90504 90536
2116.4924 90578 90606 90613 90609 90613 90633 90661 90675 90661 90622 90586
2121.7957 90582 90622 90683 90718 90686 90576 90416 90260 90163 90150 90211
2127.0991 90305 90378 90388 90318 90185 90038 89938 89929 90014 90152 90274
2132.4023 90324 90289 90204 90130 90113 90152 90210 90236 90206 90146 90117
2137.7056 90185 90375 90651 90926 91094 91087 90913 90646 90389 90211 90118
2143.0088 90059 89963 89789 89553 89327 89199 89241 89467 89818 90174 90397
2148.3123 90398 90186 89873 89617 89536 89647 89863 90056 90136 90097 90004
2153.6155 89943 89975 90114 90336 90589 90792 90852 90683 90262 89665 89067
2158.9187 88675 88631 88936 89459 90013 90437 90634 90593 90376 90085 89824
2164.2219 89656 89591 89614 89701 89838 90005 90160 90246 90226 90116 89988
2169.5254 89936 90032 90291 90669 91096 91489 91764 91834 91632 91146 90451
2174.8286 89707 89106 88802 88854 89211 89735 90251 90597 90670 90460 90050
2180.1318 89594 89254 89140 89263 89549 89884 90175 90377 90481 90488 90398
2185.4351 90224 90017 89876 89925 90257 90872 91640 92322 92669 92547 92004
2190.7385 91238 90484 89918 89609 89523 89568 89656 89729 89762 89741 89653
2196.0417 89498 89312 89164 89127 89233 89445 89665 89773 89695 89442 89109
2201.3450 88825 88697 88749 88921 89092 89140 89004 88711 88362 88073 87921
2206.6482 87917 88014 88151 88281 88392 88492 88588 88677 88750 88802 88844
2211.9517 88890 88950 89017 89072 89098 89083 89026 88932 88807 88665 88530
2217.2549 88432 88395 88421 88484 88544 88563 88522 88435 88329 88238 88179
2222.5581 88153 88144 88133 88111 88086 88076 88100 88157 88227 88280 88303
2227.8613 88314 88353 88453 88609 88764 88839 88781 88598 88358 88158 88071
2233.1648 88115 88252 88413 88530 88563 88503 88371 88204 88047 87943 87916
2238.4680 87965 88060 88159 88226 88247 88231 88201 88176 88161 88147 88122
2243.7712 88081 88024 87963 87909 87876 87874 87906 87963 88021 88047 88023
2249.0745 87956 87880 87840 87860 87923 87978 87966 87862 87691 87522 87424
2254.3779 87440 87563 87748 87938 88087 88172 88192 88161 88098 88026 87968
2259.6812 87943 87953 87991 88035 88060 88044 87973 87847 87679 87498 87344
2264.9844 87253 87243 87305 87402 87496 87559 87593 87621 87662 87721 87781
2270.2876 87818 87817 87782 87726 87662 87588 87499 87395 87295 87227 87216
2275.5911 87267 87359 87454 87517 87526 87480 87394 87287 87185 87109 87076
2280.8943 87092 87151 87235 87324 87402 87463 87505 87524 87515 87478 87419
2286.1975 87357 87316 87311 87340 87384 87423 87442 87444 87444 87453 87471
2291.5007 87485 87476 87437 87375 87307 87252 87214 87186 87156 87119 87084
2296.8042 87062 87061 87077 87093 87096 87079 87050 87020 86996 86978 86962
2302.1074 86946 86934 86934 86945 86957 86956 86929 86872 86795 86713 86634
2307.4106 86562 86495 86431 86375 86330 86301 86284 86272 86260 86244 86228
2312.7139 86214 86206 86205 86216 86246 86301 86376 86455 86509 86510 86444
2318.0173 86319 86165 86020 85909 85841 85803 85778 85755 85734 85728 85748
2323.3206 85793 85847 85882 85874 85813 85710 85597 85513 85487 85526 85607
2328.6238 85689 85734 85727 85677 85606 85534 85470 85412 85358 85310 85270
2333.9270 85237 85208 85178 85152 85139 85156 85211 85296 85387 85456 85476
2339.2305 85438 85352 85241 85136 85062 85028 85039 85099 85207 85347 85489
2344.5337 85599 85671 85732 85823 85958 86106 86215 86244 86185 86061 85908
2349.8369 85776 85704 85701 85738 85757 85713 85598 85437 85260 85081 84896
2355.1401 84694 84480 84279 84136 84090 84163 84343 84582 84812 84971 85030
2360.4436 85011 84969 84962 85020 85140 85295 85456 85594 85679 85685 85599
2365.7468 85438 85255 85124 85103 85209 85404 85618 85782 85862 85874 85866
2371.0500 85897 86004 86188 86415 86636 86808 86915 86968 86997 87029 87079
2376.3533 87142 87211 87281 87358 87452 87566 87694 87824 87939 88028 88090
2381.6567 88130 88163 88200 88253 88323 88406 88487 88550 88585 88591 88579
2386.9600 88564 88558 88564 88581 88603 88623 88641 88658 88679 88709 88749
2392.2632 88800 88860 88923 88986 89044 89096 89138 89165 89169 89147 89104
2397.5664 89053 89011 88992 89000 89028 89064 89097 89119 89133 89146 89167
2402.8699 89202 89248 89297 89334 89350 89343 89322 89298 89284 89282 89287
2408.1731 89294 89299 89308 89330 89372 89428 89484 89516 89508 89462 89393
2413.4763 89328 89289 89284 89306 89342 89375 89401 89421 89440 89464 89493
2418.7795 89519 89536 89536 89519 89496 89480 89488 89528 89592 89664 89719
2424.0830 89739 89719 89664 89590 89513 89447 89401 89379 89383 89409 89449
2429.3862 89493 89533 89563 89584 89598 89608 89614 89616 89610 89600 89595
2434.6895 89605 89636 89682 89730 89763 89776 89777 89783 89809 89849 89884
2439.9927 89889 89853 89788 89721 89679 89673 89692 89716 89732 89738 89744
2445.2961 89763 89796 89841 89888 89932 89971 90003 90022 90024 90007 89977
2450.5994 89950 89937 89943 89963 89984 89994 89991 89978 89965 89961 89974
2455.9026 90006 90056 90118 90180 90229 90252 90246 90210 90153 90087 90027
2461.2058 89985 89970 89987 90029 90084 90135 90170 90183 90178 90159 90131
2466.5093 90096 90059 90031 90025 90051 90105 90164 90201 90193 90141 90067
2471.8125 90006 89984 90009 90065 90125 90164 90177 90174 90178 90205 90258
2477.1157 90323 90379 90408 90404 90376 90340 90315 90309 90323 90354 90395
2482.4189 90443 90493 90539 90578 90603 90614 90615 90613 90616 90629 90655
2487.7224 90693 90737 90781 90815 90831 90819 90778 90712 90635 90562 90508
2493.0256 90483 90488 90515 90555 90599 90640 90680 90721 90766 90813 90857
2498.3289 90888 90899 90883 90842 90784 90724 90679 90656 90655 90665 90676
2503.6321 90680 90680 90684 90702 90733 90773 90810 90836 90847 90847 90842
2508.9355 90835 90826 90812 90791 90766 90745 90738 90752 90784 90828 90872
2514.2388 90909 90937 90961 90982 90997 90995 90968 90917 90857 90812 90801
2519.5420 90824 90862 90885 90871 90819 90752 90703 90696 90727 90774 90806
2524.8452 90804 90774 90739 90723 90737 90775 90819 90856 90881 90899 90914
2530.1487 90923 90920 90897 90859 90818 90790 90786 90801 90819 90824 90811
2535.4519 90794 90795 90836 90918 91018 91102 91139 91127 91086 91056 91062
2540.7551 91108 91170 91218 91233 91219 91198 91190 91198 91207 91196 91157
2546.0583 91097 91041 91015 91030 91082 91152 91220 91273 91307 91320 91315
2551.3618 91295 91264 91234 91221 91236 91281 91347 91414 91461 91472 91442
2556.6650 91379 91305 91243 91217 91232 91281 91338 91378 91388 91372 91346
2561.9683 91331 91337 91362 91398 91437 91480 91529 91587 91650 91704 91738
2567.2715 91745 91726 91695 91666 91653 91661 91688 91722 91751 91766 91765
2572.5750 91751 91730 91709 91693 91684 91684 91694 91713 91738 91766 91796
2577.8782 91828 91862 91894 91917 91925 91913 91886 91856 91837 91838 91858
2583.1814 91889 91916 91928 91921 91898 91868 91838 91813 91796 91784 91777
2588.4849 91776 91781 91796 91819 91849 91882 91914 91939 91955 91963 91967
2593.7881 91971 91979 91987 91991 91988 91984 91988 92011 92054 92104 92141
2599.0913 92150 92129 92092 92058 92043 92050 92070 92095 92114 92123 92121
2604.3945 92109 92093 92079 92075 92088 92117 92155 92197 92237 92277 92320
2609.6980 92368 92418 92460 92481 92473 92434 92373 92307 92255 92234 92246
2615.0012 92284 92330 92367 92388 92398 92407 92426 92455 92486 92509 92517
2620.3044 92508 92488 92466 92451 92447 92457 92478 92502 92521 92528 92521
2625.6077 92505 92491 92487 92499 92524 92556 92582 92595 92591 92575 92558
2630.9111 92550 92556 92574 92596 92614 92622 92623 92623 92625 92632 92642
2636.2144 92652 92661 92674 92691 92715 92738 92754 92754 92735 92703 92667
2641.5176 92642 92636 92650 92679 92711 92736 92748 92745 92730 92706 92680
2646.8208 92654 92634 92624 92625 92635 92653 92672 92692 92709 92722 92732
2652.1243 92738 92743 92749 92758 92770 92781 92787 92784 92775 92768 92769
2657.4275 92782 92801 92818 92823 92814 92797 92780 92772 92773 92781 92791
2662.7307 92803 92818 92838 92863 92890 92914 92929 92935 92935 92930 92924
2668.0339 92918 92913 92914 92922 92939 92960 92978 92989 92989 92980 92968
2673.3374 92957 92948 92939 92927 92911 92893 92880 92876 92881 92891 92901
2678.6406 92907 92909 92912 92921 92939 92962 92985 93006 93023 93038 93052
2683.9438 93063 93067 93062 93052 93040 93030 93024 93017 93008 92997 92989
2689.2471 92989 92998 93010 93017 93013 92997 92974 92953 92941 92939 92946
2694.5505 92957 92971 92984 92997 93007 93012 93008 92994 92974 92952 92936
2699.8538 92930 92937 92956 92981 93004 93015 93008 92985 92953 92926 92911
2705.1570 92911 92917 92921 92916 92905 92899 92909 92937 92976 93010 93026
2710.4602 93020 92997 92976 92972 92994 93039 93091 93132 93151 93145 93124
2715.7637 93103 93091 93090 93095 93095 93086 93072 93059 93056 93061 93071
2721.0669 93076 93070 93051 93025 93000 92981 92971 92973 92987 93013 93052
2726.3701 93098 93145 93183 93204 93207 93196 93175 93151 93125 93101 93080
2731.6733 93065 93059 93061 93070 93079 93079 93061 93017 92948 92863 92784
2736.9768 92739 92747 92810 92905 93001 93063 93079 93052 93005 92958 92925
2742.2800 92908 92903 92902 92900 92897 92893 92888 92882 92877 92870 92861
2747.5833 92849 92836 92827 92825 92831 92842 92852 92853 92842 92821 92798
2752.8865 92781 92778 92791 92816 92845 92868 92878 92873 92857 92836 92820
2758.1899 92810 92807 92806 92802 92793 92780 92767 92759 92755 92753 92749
2763.4932 92737 92715 92686 92657 92633 92619 92616 92621 92627 92627 92616
2768.7964 92598 92582 92575 92584 92601 92617 92621 92611 92593 92576 92569
2774.0996 92571 92576 92576 92565 92547 92528 92517 92516 92525 92537 92545
2779.4031 92545 92535 92518 92498 92485 92482 92492 92509 92527 92536 92532
2784.7063 92514 92490 92467 92454 92454 92467 92488 92511 92528 92535 92531
2790.0095 92523 92517 92522 92538 92559 92577 92582 92575 92563 92558 92565
2795.3127 92582 92602 92613 92613 92603 92594 92591 92597 92607 92618 92625
2800.6162 92629 92634 92642 92655 92672 92691 92712 92733 92753 92771 92783
2805.9194 92787 92783 92777 92774 92780 92795 92816 92834 92846 92850 92848
2811.2227 92845 92841 92834 92823 92806 92785 92763 92746 92734 92729 92728
2816.5259 92731 92735 92740 92742 92745 92748 92753 92760 92764 92759 92742
2821.8293 92714 92680 92646 92621 92605 92599 92599 92598 92594 92584 92569
2827.1326 92553 92541 92536 92539 92549 92561 92572 92575 92566 92546 92519
2832.4358 92495 92483 92486 92498 92503 92490 92454 92401 92344 92298 92266
2837.7390 92246 92231 92215 92199 92187 92181 92177 92171 92156 92133 92108
2843.0425 92095 92104 92142 92203 92274 92340 92388 92417 92433 92446 92463
2848.3457 92481 92491 92480 92442 92379 92304 92233 92180 92151 92144 92151
2853.6489 92159 92160 92149 92124 92087 92043 91995 91948 91907 91871 91837
2858.9521 91797 91746 91680 91603 91521 91439 91360 91284 91212 91145 91088
2864.2556 91044 91018 91008 91012 91021 91030 91032 91023 91003 90978 90952
2869.5588 90926 90899 90864 90813 90745 90667 90587 90519 90468 90435 90417
2874.8621 90413 90421 90445 90490 90560 90651 90754 90858 90954 91041 91121
2880.1653 91200 91278 91348 91400 91427 91427 91410 91385 91362 91344 91327
2885.4688 91307 91281 91250 91219 91192 91169 91151 91137 91129 91135 91160
2890.7720 91203 91257 91309 91346 91366 91376 91392 91425 91477 91537 91590
2896.0752 91625 91642 91651 91663 91683 91705 91718 91717 91703 91688 91689
2901.3784 91712 91753 91797 91827 91837 91831 91825 91836 91869 91918 91966
2906.6819 91997 92003 91991 91976 91975 92000 92049 92110 92167 92205 92223
2911.9851 92225 92222 92222 92226 92231 92231 92226 92218 92214 92216 92224
2917.2883 92229 92224 92204 92166 92113 92052 91988 91927 91870 91817 91760
2922.5916 91692 91604 91496 91368 91229 91092 90968 90866 90790 90738 90701
2927.8950 90666 90625 90568 90493 90396 90276 90136 89982 89828 89689 89575
2933.1982 89488 89421 89362 89304 89242 89179 89116 89055 88998 88953 88933
2938.5015 88947 88999 89083 89180 89272 89343 89388 89408 89409 89399 89383
2943.8047 89364 89339 89301 89244 89169 89085 89008 88956 88940 88956 88996
2949.1082 89047 89102 89166 89245 89343 89454 89568 89672 89758 89824 89872
2954.4114 89903 89920 89925 89924 89922 89921 89919 89909 89883 89842 89792
2959.7146 89746 89712 89690 89670 89640 89596 89548 89519 89533 89605 89732
2965.0178 89896 90068 90225 90351 90439 90493 90518 90523 90519 90516 90521
2970.3213 90533 90546 90553 90549 90538 90527 90522 90521 90522 90519 90514
2975.6245 90511 90516 90532 90557 90585 90612 90635 90656 90673 90688 90700
2980.9277 90714 90731 90749 90764 90772 90772 90769 90771 90782 90799 90811
2986.2310 90807 90782 90737 90680 90616 90547 90472 90392 90313 90245 90199
2991.5344 90181 90184 90197 90204 90202 90195 90200 90233 90296 90380 90460
2996.8376 90517 90543 90547 90548 90563 90601 90656 90714 90760 90785 90787
3002.1409 90772 90750 90732 90722 90714 90700 90669 90624 90574 90536 90523
3007.4441 90531 90548 90555 90542 90511 90475 90452 90449 90468 90500 90535
3012.7476 90570 90604 90643 90689 90742 90799 90856 90907 90949 90982 91006
3018.0508 91023 91040 91061 91090 91124 91156 91176 91179 91168 91152 91142
3023.3540 91142 91153 91167 91176 91171 91149 91108 91052 90984 90911 90839
3028.6572 90770 90702 90633 90560 90486 90417 90364 90334 90329 90344 90371
3033.9607 90401 90428 90448 90466 90487 90515 90555 90606 90664 90724 90785
3039.2639 90846 90909 90973 91031 91073 91093 91092 91082 91078 91090 91116
3044.5671 91144 91160 91157 91136 91107 91079 91055 91030 91001 90970 90943
3049.8704 90927 90926 90932 90933 90918 90883 90832 90778 90736 90713 90709
3055.1738 90715 90718 90711 90697 90682 90675 90678 90682 90677 90650 90599
3060.4771 90530 90454 90376 90300 90219 90129 90029 89924 89830 89764 89742
3065.7803 89776 89868 90009 90183 90370 90548 90704 90830 90925 90993 91042
3071.0835 91083 91126 91173 91221 91263 91290 91302 91303 91301 91303 91313
3076.3870 91328 91346 91362 91376 91385 91390 91392 91397 91409 91432 91459
3081.6902 91484 91497 91493 91472 91440 91399 91352 91301 91255 91224 91220
3086.9934 91244 91292 91352 91412 91466 91513 91557 91599 91638 91670 91690
3092.2966 91695 91686 91666 91644 91626 91620 91626 91643 91667 91696 91729
3097.6001 91766 91805 91840 91866 91878 91876 91866 91852 91839 91828 91816
3102.9033 91802 91783 91760 91735 91712 91694 91685 91686 91694 91705 91714
3108.2065 91720 91722 91725 91730 91737 91743 91743 91735 91717 91693 91662
3113.5098 91627 91592 91564 91552 91563 91598 91645 91688 91714 91720 91711
3118.8132 91696 91680 91659 91628 91591 91561 91557 91591 91657 91737 91802
3124.1165 91835 91833 91808 91778 91758 91758 91778 91808 91836 91848 91837
3129.4197 91803 91755 91705 91663 91633 91617 91616 91631 91664 91710 91761
3134.7229 91806 91836 91850 91854 91860 91873 91895 91919 91939 91952 91956
3140.0264 91952 91940 91918 91885 91844 91803 91770 91750 91747 91755 91770
3145.3296 91784 91794 91799 91800 91802 91810 91825 91845 91865 91875 91869
3150.6328 91848 91820 91797 91790 91806 91843 91891 91940 91978 91999 92003
3155.9360 91991 91968 91935 91894 91846 91797 91755 91729 91726 91749 91794
3161.2395 91853 91912 91959 91984 91982 91955 91917 91883 91870 91885 91924
3166.5427 91970 92009 92027 92026 92016 92011 92019 92038 92058 92067 92056
3171.8459 92027 91985 91940 91901 91871 91857 91862 91886 91925 91968 92001
3177.1492 92015 92012 92003 92001 92016 92045 92079 92107 92122 92119 92098
3182.4526 92060 92014 91969 91938 91931 91953 92000 92062 92126 92181 92217
3187.7559 92225 92203 92158 92107 92067 92054 92068 92102 92140 92173 92197
3193.0591 92214 92230 92243 92251 92253 92250 92250 92258 92278 92305 92329
3198.3623 92343 92343 92335 92326 92324 92331 92343 92356 92369 92386 92411
3203.6658 92445 92482 92509 92518 92506 92481 92455 92441 92448 92476 92523
3208.9690 92581 92641 92691 92723 92731 92720 92699 92683 92680 92689 92701
3214.2722 92704 92691 92668 92645 92636 92644 92666 92695 92729 92769 92818
3219.5754 92874 92925 92958 92966 92953 92935 92923 92920 92918 92904 92876
3224.8789 92843 92824 92834 92879 92947 93021 93079 93109 93106 93077 93032
3230.1821 92986 92949 92922 92901 92879 92855 92838 92839 92863 92907 92956
3235.4854 92991 93000 92976 92925 92858 92792 92745 92729 92744 92778 92804
3240.7886 92802 92765 92706 92646 92605 92587 92580 92566 92532 92477 92411
3246.0920 92349 92304 92282 92282 92295 92310 92310 92285 92234 92170 92110
3251.3953 92071 92054 92048 92032 91993 91931 91862 91806 91776 91768 91768
3256.6985 91754 91717 91658 91589 91523 91472 91440 91422 91413 91404 91389
3262.0017 91365 91336 91310 91294 91289 91286 91272 91240 91191 91136 91088
3267.3052 91050 91020 90992 90964 90941 90929 90927 90930 90922 90896 90851
3272.6084 90798 90753 90725 90716 90719 90722 90713 90688 90650 90606 90565
3277.9116 90533 90513 90505 90504 90503 90491 90458 90398 90310 90209 90114
3283.2148 90052 90043 90089 90175 90268 90333 90341 90287 90189 90076 89976
3288.5183 89903 89852 89808 89758 89700 89645 89611 89607 89633 89677 89721
3293.8215 89753 89764 89757 89736 89709 89682 89655 89627 89597 89567 89540
3299.1248 89523 89520 89529 89544 89554 89552 89538 89516 89496 89490 89505
3304.4280 89544 89599 89659 89707 89731 89727 89700 89664 89636 89626 89633
3309.7314 89649 89668 89687 89710 89738 89770 89798 89815 89818 89819 89831
3315.0347 89868 89931 90011 90089 90146 90171 90165 90137 90106 90088 90091
3320.3379 90110 90129 90130 90104 90054 89999 89962 89956 89984 90034 90092
3325.6411 90146 90191 90226 90245 90242 90208 90145 90060 89969 89890 89833
3330.9446 89801 89786 89777 89763 89737 89695 89640 89576 89510 89450 89408
3336.2478 89388 89393 89413 89435 89445 89432 89396 89339 89269 89195 89125
3341.5510 89067 89023 88991 88966 88944 88925 88917 88925 88948 88978 88998
3346.8542 88997 88972 88936 88906 88895 88908 88940 88980 89017 89044 89055
3352.1577 89047 89025 88993 88960 88935 88922 88920 88924 88928 88930 88928
3357.4609 88925 88924 88928 88937 88946 88952 88952 88948 88950 88963 88987
3362.7642 89016 89036 89038 89021 88990 88957 88931 88915 88910 88918 88936
3368.0674 88963 88994 89023 89047 89064 89077 89086 89091 89092 89088 89088
3373.3708 89101 89131 89176 89225 89261 89274 89265 89244 89226 89221 89237
3378.6741 89271 89322 89385 89456 89530 89598 89648 89671 89662 89628 89581
3383.9773 89537 89509 89508 89534 89584 89654 89734 89817 89898 89971 90035
3389.2805 90089 90138 90185 90233 90281 90326 90364 90391 90409 90423 90438
3394.5840 90456 90477 90499 90527 90564 90615 90679 90749 90816 90874 90922
3399.8872 90964 91001 91028 91044 91049 91053 91070 91110 91171 91242 91307
3405.1904 91356 91386 91405 91418 91430 91441 91452 91464 91483 91513 91555
3410.4937 91604 91651 91682 91686 91660 91612 91559 91522 91516 91547 91608
3415.7971 91686 91767 91842 91906 91958 91994 92009 92002 91972 91926 91878
3421.1003 91842 91830 91841 91868 91895 91909 91900 91869 91825 91783 91756
3426.4036 91755 91783 91832 91891 91944 91977 91984 91963 91916 91850 91774
3431.7068 91702 91650 91635 91661 91718 91784 91830 91833 91789 91713 91631
3437.0103 91568 91537 91535 91545 91547 91528 91483 91422 91358 91303 91259
3442.3135 91223 91185 91135 91068 90986 90893 90801 90723 90672 90656 90669
3447.6167 90695 90717 90719 90696 90647 90580 90502 90423 90355 90306 90274
3452.9199 90251 90218 90163 90081 89983 89888 89816 89774 89756 89746 89726
3458.2234 89687 89626 89552 89476 89407 89352 89313 89286 89264 89242 89212
3463.5266 89172 89123 89065 89005 88947 88899 88871 88871 88900 88950 89011
3468.8298 89067 89111 89140 89156 89160 89149 89118 89067 89005 88947 88912
3474.1331 88914 88951 89015 89092 89174 89260 89344 89418 89470 89490 89481
3479.4365 89464 89464 89504 89587 89693 89790 89851 89876 89890 89923 89993
3484.7397 90093 90194 90261 90279 90262 90247 90269 90343 90454 90566 90652
3490.0430 90703 90732 90760 90802 90858 90916 90966 91002 91031 91065 91116
3495.3462 91187 91272 91358 91432 91490 91535 91575 91619 91672 91729 91779
3500.6497 91812 91823 91818 91810 91814 91843 91899 91973 92056 92139 92217
3505.9529 92288 92356 92423 92494 92569 92644 92711 92762 92792 92805 92809
3511.2561 92814 92829 92858 92905 92964 93032 93097 93152 93190 93207 93204
3516.5593 93187 93167 93158 93173 93217 93285 93361 93426 93464 93464 93426
3521.8628 93361 93288 93235 93228 93272 93358 93459 93546 93599 93610 93592
3527.1660 93565 93553 93563 93591 93624 93648 93658 93654 93642 93627 93619
3532.4692 93622 93643 93680 93727 93769 93790 93784 93763 93751 93772 93833
3537.7725 93916 93989 94021 94000 93940 93869 93812 93780 93767 93755 93731
3543.0759 93692 93646 93602 93572 93561 93574 93616 93687 93777 93870 93944
3548.3792 93985 93987 93957 93904 93841 93780 93731 93703 93699 93721 93767
3553.6824 93832 93909 93989 94062 94120 94158 94171 94158 94120 94061 93995
3558.9856 93940 93916 93927 93963 93998 94013 94002 93975 93947 93925 93898
3564.2891 93849 93764 93649 93539 93489 93542 93689 93869 94018 94109 94148
3569.5923 94159 94161 94164 94169 94168 94156 94134 94107 94083 94066 94056
3574.8955 94053 94055 94069 94096 94136 94179 94216 94241 94256 94268 94277
3580.1990 94274 94249 94197 94127 94060 94017 94008 94027 94049 94054 94028
3585.5022 93973 93906 93850 93828 93851 93913 94000 94090 94165 94209 94214
3590.8054 94182 94124 94055 93992 93945 93914 93891 93873 93862 93869 93900
3596.1086 93952 94013 94071 94116 94143 94153 94147 94133 94119 94111 94110
3601.4121 94112 94113 94111 94105 94094 94076 94049 94011 93967 93925 93899
3606.7153 93896 93920 93972 94045 94127 94198 94238 94236 94192 94116 94025
3612.0186 93942 93891 93885 93914 93958 94001 94038 94071 94099 94120 94125
3617.3218 94108 94070 94023 93994 94002 94044 94101 94152 94189 94214 94233
3622.6252 94249 94257 94253 94236 94209 94181 94150 94104 94024 93891 93700
3627.9285 93485 93339 93369 93546 93744 93893 93990 94053 94095 94122 94142
3633.2317 94167 94209 94268 94327 94368 94380 94363 94331 94302 94290 94297
3638.5349 94312 94322 94321 94311 94300 94296 94299 94306 94309 94304 94290
3643.8384 94266 94228 94170 94076 93934 93748 93556 93424 93402 93485 93627
3649.1416 93775 93884 93941 93969 94004 94062 94134 94201 94238 94228 94158
3654.4448 94029 93866 93731 93696 93785 93941 94086 94183 94231 94251 94270
3659.7480 94308 94373 94451 94517 94546 94527 94471 94404 94358 94353 94387
3665.0515 94438 94474 94471 94417 94313 94170 94006 93844 93721 93679 93743
3670.3547 93885 94034 94135 94177 94171 94127 94046 93916 93725 93506 93397
3675.6580 93497 93704 93895 94027 94093 94104 94077 94042 94031 94059 94116
3680.9612 94180 94229 94253 94250 94228 94199 94172 94148 94119 94071 93997
3686.2646 93900 93794 93710 93683 93713 93758 93773 93756 93740 93761 93831
3691.5679 93925 94005 94050 94061 94045 94010 93963 93913 93877 93871 93903
3696.8711 93965 94035 94086 94101 94078 94024 93948 93861 93779 93723 93714
3702.1743 93749 93808 93864 93907 93938 93965 93995 94026 94047 94045 94017
3707.4778 93970 93921 93885 93863 93833 93768 93666 93560 93518 93593 93759
3712.7810 93925 94028 94059 94045 94017 94001 94008 94030 94051 94059 94046
3718.0842 94014 93965 93902 93826 93736 93637 93545 93492 93508 93599 93727
3723.3875 93846 93920 93937 93896 93815 93733 93692 93714 93782 93863 93925
3728.6909 93949 93934 93887 93826 93769 93736 93732 93736 93718 93657 93544
3733.9941 93382 93192 93027 92960 93018 93170 93365 93549 93682 93740 93725
3739.2974 93669 93621 93627 93699 93801 93872 93862 93750 93546 93335 93303
3744.6006 93533 93805 93940 93939 93850 93707 93536 93372 93272 93291 93420
3749.9041 93581 93702 93758 93767 93777 93824 93901 93972 94016 94028 94013
3755.2073 93982 93946 93913 93882 93847 93804 93761 93734 93747 93807 93899
3760.5105 93997 94086 94160 94211 94228 94193 94101 93967 93831 93753 93781
3765.8137 93905 94059 94175 94224 94211 94156 94082 94019 93984 93980 93994
3771.1172 94016 94044 94078 94116 94153 94185 94209 94227 94237 94235 94216
3776.4204 94175 94116 94048 93983 93935 93915 93922 93947 93974 93999 94017
3781.7236 94027 94028 94023 94020 94032 94067 94119 94168 94193 94187 94157
3787.0269 94116 94079 94049 94024 94000 93980 93972 93985 94018 94062 94098
3792.3303 94110 94092 94051 93997 93942 93889 93842 93806 93792 93803 93828
3797.6335 93843 93828 93772 93672 93530 93360 93206 93140 93213 93387 93584
3802.9368 93755 93881 93949 93952 93889 93774 93650 93586 93625 93732 93829
3808.2400 93881 93899 93907 93923 93949 93976 93989 93982 93958 93926 93890
3813.5435 93847 93797 93748 93732 93790 93923 94060 94136 94135 94074 93974
3818.8467 93847 93706 93573 93487 93490 93568 93660 93725 93754 93759 93752
3824.1499 93746 93750 93770 93806 93850 93891 93926 93953 93972 93977 93963
3829.4531 93930 93886 93849 93843 93871 93902 93899 93843 93743 93631 93552
3834.7566 93545 93608 93704 93787 93818 93774 93665 93538 93454 93448 93522
3840.0598 93652 93790 93882 93903 93858 93781 93718 93712 93772 93872 93967
3845.3630 94030 94058 94059 94044 94023 93998 93966 93920 93861 93792 93721
3850.6663 93656 93600 93557 93533 93541 93598 93685 93754 93780 93772 93748
3855.9697 93725 93720 93743 93793 93851 93893 93899 93866 93799 93721 93665
3861.2729 93662 93713 93783 93827 93818 93753 93669 93627 93665 93756 93842
3866.5762 93882 93861 93776 93630 93445 93280 93227 93318 93468 93586 93638
3871.8794 93631 93586 93544 93557 93663 93836 94005 94116 94163 94164 94144
3877.1829 94117 94083 94030 93939 93806 93654 93542 93519 93579 93680 93784
3882.4861 93867 93915 93913 93855 93752 93649 93618 93695 93840 93975 94049
3887.7893 94047 93979 93869 93752 93668 93650 93707 93806 93886 93910 93887
3893.0925 93846 93819 93822 93860 93915 93960 93974 93947 93882 93797 93719
3898.3960 93674 93670 93688 93696 93675 93628 93566 93506 93457 93420 93394
3903.6992 93385 93409 93479 93590 93720 93844 93945 94019 94067 94092 94097
3909.0024 94086 94063 94037 94021 94024 94045 94073 94089 94074 94023 93946
3914.3057 93865 93799 93763 93759 93780 93809 93830 93839 93840 93843 93856
3919.6091 93886 93930 93975 94005 94010 93987 93940 93882 93827 93795 93796
3924.9124 93825 93867 93905 93929 93936 93927 93905 93871 93830 93785 93742
3930.2156 93709 93693 93698 93723 93760 93799 93837 93875 93919 93970 94025
3935.5188 94072 94105 94117 94112 94099 94084 94072 94061 94047 94024 93990
3940.8223 93945 93895 93852 93833 93848 93895 93957 94015 94056 94073 94066
3946.1255 94041 94007 93970 93943 93932 93945 93981 94032 94080 94108 94105
3951.4287 94070 94015 93953 93899 93862 93846 93849 93869 93902 93947 93997
3956.7319 94048 94092 94123 94136 94130 94106 94068 94024 93985 93960 93954
3962.0354 93964 93983 94003 94020 94033 94044 94053 94054 94039 94005 93957
3967.3386 93911 93889 93902 93947 94003 94046 94058 94041 94009 93983 93976
3972.6418 93991 94014 94032 94036 94026 94007 93989 93978 93976 93983 93997
3977.9451 94013 94029 94045 94063 94083 94105 94122 94126 94112 94084 94056
3983.2485 94044 94055 94084 94113 94122 94101 94056 94003 93956 93925 93907
3988.5518 93895 93882 93869 93861 93867 93894 93941 93998 94048 94075 94073
3993.8550 94047 94014 93991 93987 93997 94009 94012 94003 93988 93974 93966
3999.1582 93963 93960 93959
##END= 
