##TITLE= STDACIDOBENZOICO
##JCAMP-DX= 4.24
##DATA TYPE= INFRARED SPECTRUM
##ORIGIN= JASCO
##OWNER= 
##DATE= 22/03/30
##TIME= 18:08:37
##SPECTROMETER/DATA SYSTEM= 
##RESOLUTION= 
##DELTAX=   0.48211674
##XUNITS= 1/CM
##YUNITS= TRANSMITTANCE
##XFACTOR= 1.00000
##YFACTOR= 1E-005
##FIRSTX=   599.7532
##LASTX=  4000.1226
##NPOINTS=     7054
##FIRSTY=      0.71293
##MAXY=      0.95803
##MINY=      0.36269
##XYDATA= (X++(Y..Y))
599.7532 71293 71103 70881 70613 70324 70064 69876 69776 69745 69747 69754
605.0565 69772 69831 69958 70143 70330 70438 70404 70223 69950 69666 69427
610.3598 69231 69033 68789 68496 68204 67971 67825 67731 67614 67404 67092
615.6631 66748 66502 66494 66797 67362 68024 68575 68862 68835 68553 68154
620.9664 67793 67577 67521 67547 67542 67420 67172 66863 66592 66429 66382
626.2697 66389 66364 66239 65993 65653 65279 64941 64703 64596 64614 64712
631.5729 64814 64844 64760 64573 64340 64130 63984 63898 63834 63748 63627
636.8762 63498 63409 63388 63418 63430 63335 63070 62643 62136 61669 61348
642.1795 61219 61258 61385 61497 61498 61327 60969 60460 59881 59327 58878
647.4828 58565 58365 58218 58068 57895 57713 57545 57391 57222 56992 56678
652.7861 56289 55868 55462 55098 54770 54442 54075 53639 53129 52561 51959
658.0894 51347 50741 50139 49524 48867 48133 47306 46394 45428 44451 43501
663.3926 42607 41793 41081 40474 39950 39457 38959 38520 38620 40782 46764
668.6959 54066 59051 62179 64694 67075 69275 71029 72086 72402 72163 71646
673.9992 71032 70336 69471 68368 67054 65635 64232 62909 61649 60371 58974
679.3025 57385 55607 53739 51960 50479 49467 48998 49022 49409 50038 50883
684.6058 52012 53500 55298 57172 58750 59674 59779 59182 58197 57150 56217
689.9091 55399 54630 53894 53274 52881 52748 52765 52716 52386 51679 50634
695.2123 49367 47982 46558 45178 43948 42969 42272 41779 41351 40877 40327
700.5156 39746 39187 38648 38083 37468 36860 36405 36269 36563 37306 38444
705.8189 39904 41643 43650 45910 48373 50947 53508 55941 58172 60189 62053
711.1222 63876 65787 67887 70210 72714 75284 77779 80073 82086 83783 85156
716.4255 86212 86978 87509 87881 88173 88438 88690 88899 89026 89049 88988
721.7288 88890 88801 88753 88748 88766 88766 88703 88550 88316 88041 87783
727.0320 87593 87490 87457 87454 87434 87367 87249 87098 86938 86788 86645
732.3353 86489 86295 86049 85762 85467 85195 84955 84720 84437 84059 83568
737.6386 82988 82367 81753 81164 80592 80007 79383 78715 78020 77329 76668
742.9419 76042 75432 74809 74150 73455 72752 72079 71459 70891 70357 69839
748.2452 69341 68895 68549 68343 68291 68382 68587 68872 69205 69556 69897
753.5485 70209 70483 70719 70914 71050 71096 71023 70834 70586 70383 70335
758.8517 70495 70806 71115 71243 71068 70590 69923 69249 68739 68481 68456
764.1550 68576 68742 68892 69021 69163 69360 69641 70010 70449 70934 71451
769.4583 72002 72591 73210 73822 74374 74815 75129 75349 75540 75767 76058
774.7616 76395 76728 77007 77198 77290 77291 77216 77079 76898 76693 76490
780.0649 76310 76171 76080 76031 76007 75979 75922 75819 75677 75520 75370
785.3682 75231 75081 74886 74630 74326 74015 73745 73531 73354 73165 72921
790.6714 72612 72261 71915 71608 71344 71099 70831 70508 70119 69672 69194
795.9747 68713 68250 67812 67388 66955 66486 65965 65399 64813 64241 63708
801.2780 63226 62793 62409 62091 61869 61783 61868 62136 62573 63139 63777
806.5813 64419 64990 65420 65652 65662 65481 65214 65027 65117 65643 66667
811.8846 68119 69807 71485 72928 74009 74714 75125 75360 75521 75661 75794
817.1879 75912 76014 76119 76259 76461 76727 77034 77334 77584 77756 77855
822.4911 77907 77944 77986 78028 78051 78031 77959 77846 77719 77606 77527
827.7944 77490 77487 77505 77526 77531 77505 77449 77378 77324 77316 77361
833.0977 77441 77516 77549 77531 77480 77433 77415 77427 77446 77446 77413
838.4010 77359 77312 77293 77308 77340 77361 77349 77297 77214 77113 77004
843.7043 76893 76781 76678 76598 76551 76536 76530 76498 76412 76263 76070
849.0076 75869 75695 75566 75478 75404 75316 75197 75050 74896 74762 74659
854.3109 74581 74504 74410 74303 74214 74192 74267 74436 74652 74846 74960
859.6141 74969 74893 74774 74652 74545 74447 74342 74220 74087 73962 73860
864.9174 73783 73722 73661 73589 73511 73441 73392 73362 73336 73293 73215
870.2207 73095 72941 72773 72609 72464 72343 72240 72138 72022 71885 71732
875.5240 71579 71446 71344 71270 71207 71136 71044 70926 70792 70650 70509
880.8273 70375 70249 70132 70027 69930 69836 69731 69601 69435 69234 69017
886.1306 68807 68628 68483 68358 68226 68061 67857 67628 67400 67195 67018
891.4338 66862 66715 66568 66422 66277 66127 65959 65755 65510 65234 64955
896.7371 64701 64492 64329 64192 64056 63896 63700 63469 63217 62962 62717
902.0404 62491 62282 62080 61873 61648 61399 61125 60835 60540 60251 59978
907.3437 59727 59498 59286 59086 58888 58686 58479 58273 58075 57890 57713
912.6470 57532 57332 57107 56865 56627 56414 56243 56111 56005 55908 55808
917.9503 55706 55611 55534 55480 55443 55410 55370 55316 55253 55190 55137
923.2535 55096 55065 55038 55017 55008 55019 55047 55078 55091 55068 55009
928.5568 54926 54848 54796 54787 54822 54899 55014 55165 55350 55566 55803
933.8601 56055 56327 56633 57000 57460 58029 58705 59459 60240 60987 61641
939.1634 62157 62515 62725 62828 62887 62972 63143 63433 63842 64340 64885
944.4667 65436 65966 66465 66939 67403 67878 68376 68908 69468 70042 70610
949.7700 71153 71664 72149 72624 73104 73591 74072 74528 74944 75320 75672
955.0732 76022 76384 76760 77141 77515 77875 78221 78547 78840 79085 79268
960.3765 79395 79490 79583 79696 79832 79978 80113 80225 80313 80391 80469
965.6798 80554 80640 80721 80787 80835 80864 80877 80876 80869 80860 80858
970.9831 80871 80903 80953 81011 81059 81077 81053 80993 80916 80851 80824
976.2864 80848 80919 81022 81134 81236 81311 81350 81353 81327 81285 81241
981.5897 81205 81176 81151 81121 81080 81025 80956 80874 80782 80690 80604
986.8929 80535 80488 80465 80460 80461 80455 80426 80365 80268 80132 79953
992.1962 79725 79448 79130 78792 78469 78194 77998 77901 77897 77938 77929
997.4995 77741 77274 76530 75665 74961 74717 75109 76092 77412 78721 79730
1002.8028 80310 80504 80449 80292 80128 79994 79897 79832 79792 79765 79735
1008.1061 79688 79622 79545 79464 79379 79278 79155 79010 78859 78717 78591
1013.4094 78474 78350 78206 78036 77843 77629 77401 77164 76926 76700 76496
1018.7126 76316 76149 75975 75768 75502 75155 74710 74155 73482 72680 71723
1024.0160 70580 69244 67779 66376 65343 65039 65744 67523 70163 73222 76176
1029.3192 78595 80265 81206 81599 81676 81625 81553 81487 81415 81311 81160
1034.6226 80965 80744 80521 80316 80140 79992 79869 79766 79682 79611 79540
1039.9258 79449 79322 79158 78973 78800 78671 78602 78590 78614 78645 78659
1045.2291 78640 78585 78502 78400 78292 78185 78084 77990 77904 77824 77750
1050.5323 77683 77619 77557 77496 77440 77397 77376 77378 77393 77401 77384
1055.8357 77331 77246 77138 77020 76900 76783 76672 76570 76478 76389 76291
1061.1389 76167 76008 75812 75587 75341 75081 74811 74530 74240 73941 73631
1066.4423 73306 72963 72603 72231 71851 71467 71074 70667 70247 69827 69441
1071.7455 69144 69009 69120 69551 70347 71497 72927 74508 76086 77520 78716
1077.0488 79639 80307 80766 81069 81260 81369 81413 81402 81348 81258 81143
1082.3521 81009 80863 80715 80575 80453 80356 80281 80219 80153 80073 79972
1087.6554 79854 79725 79594 79469 79350 79237 79122 78997 78856 78696 78522
1092.9586 78339 78153 77963 77766 77556 77330 77088 76830 76554 76256 75935
1098.2620 75595 75259 74964 74757 74682 74769 75025 75424 75915 76433 76915
1103.5652 77316 77615 77820 77953 78035 78080 78093 78074 78025 77956 77885
1108.8685 77822 77770 77718 77651 77553 77420 77257 77078 76896 76716 76536
1114.1718 76353 76162 75961 75748 75523 75280 75017 74735 74444 74153 73869
1119.4751 73586 73289 72955 72570 72132 71650 71135 70597 70033 69439 68815
1124.7783 68173 67546 66975 66514 66214 66128 66299 66751 67484 68465 69630
1130.0817 70900 72188 73421 74542 75517 76328 76975 77470 77836 78099 78287
1135.3849 78421 78512 78564 78580 78563 78521 78464 78405 78349 78300 78254
1140.6882 78205 78146 78070 77973 77859 77735 77615 77513 77435 77375 77319
1145.9915 77251 77162 77053 76937 76832 76749 76691 76652 76620 76585 76545
1151.2948 76502 76460 76420 76378 76325 76252 76153 76029 75889 75746 75610
1156.5980 75489 75384 75290 75199 75104 74998 74881 74754 74620 74478 74325
1161.9014 74151 73952 73724 73475 73217 72962 72719 72487 72260 72031 71802
1167.2046 71580 71382 71219 71095 70998 70902 70774 70585 70318 69969 69554
1172.5079 69091 68602 68095 67570 67019 66437 65821 65186 64554 63964 63459
1177.8112 63084 62877 62859 63026 63351 63788 64280 64772 65214 65571 65822
1183.1145 65962 66004 65977 65925 65906 65983 66216 66655 67327 68226 69310
1188.4177 70512 71755 72964 74084 75077 75924 76614 77148 77535 77799 77970
1193.7211 78081 78154 78198 78211 78187 78125 78029 77908 77771 77627 77485
1199.0243 77351 77230 77119 77011 76896 76765 76620 76466 76310 76160 76015
1204.3276 75875 75737 75597 75452 75298 75134 74960 74782 74609 74447 74302
1209.6309 74174 74057 73948 73848 73759 73692 73652 73643 73660 73692 73726
1214.9342 73754 73772 73781 73780 73770 73747 73709 73652 73579 73489 73387
1220.2374 73277 73165 73059 72966 72887 72821 72762 72702 72634 72555 72460
1225.5408 72350 72227 72096 71960 71825 71692 71560 71428 71293 71157 71018
1230.8440 70875 70723 70563 70396 70227 70062 69901 69740 69577 69406 69229
1236.1473 69050 68873 68699 68526 68351 68172 67992 67815 67645 67482 67321
1241.4506 67156 66980 66789 66587 66381 66180 65989 65807 65630 65451 65262
1246.7539 65061 64844 64614 64371 64117 63853 63580 63296 62997 62684 62357
1252.0571 62025 61695 61375 61069 60773 60479 60178 59868 59550 59230 58916
1257.3605 58612 58315 58021 57723 57420 57113 56810 56521 56253 56012 55798
1262.6637 55611 55449 55303 55153 54967 54703 54331 53851 53309 52789 52384
1267.9670 52147 52059 52035 51962 51750 51368 50844 50251 49670 49165 48763
1273.2703 48468 48269 48156 48120 48150 48232 48349 48485 48627 48766 48891
1278.5736 48993 49062 49091 49080 49030 48947 48840 48718 48587 48451 48314
1283.8768 48181 48055 47941 47842 47760 47699 47664 47662 47699 47781 47913
1289.1802 48101 48351 48669 49060 49526 50068 50681 51365 52114 52921 53779
1294.4834 54680 55620 56596 57606 58641 59684 60717 61724 62696 63630 64523
1299.7867 65376 66188 66958 67691 68394 69077 69750 70423 71106 71807 72533
1305.0900 73291 74085 74907 75736 76532 77248 77833 78251 78490 78560 78481
1310.3933 78275 77956 77529 76997 76370 75668 74919 74153 73384 72614 71835
1315.6965 71034 70204 69337 68419 67422 66318 65089 63756 62379 61044 59829
1320.9999 58784 57936 57303 56901 56747 56850 57204 57785 58560 59493 60554
1326.3031 61722 62984 64335 65772 67291 68887 70548 72255 73974 75669 77304
1331.6064 78850 80290 81607 82790 83831 84735 85520 86209 86824 87375 87859
1336.9097 88268 88604 88877 89109 89317 89507 89669 89789 89862 89895 89903
1342.2130 89897 89885 89868 89847 89822 89794 89763 89725 89678 89619 89547
1347.5162 89464 89375 89281 89184 89086 88988 88896 88817 88757 88723 88716
1352.8196 88732 88769 88819 88874 88926 88965 88986 88985 88962 88921 88868
1358.1228 88807 88746 88684 88623 88564 88505 88444 88375 88288 88173 88030
1363.4261 87873 87716 87567 87425 87284 87143 87006 86875 86756 86645 86539
1368.7294 86428 86308 86173 86025 85867 85708 85559 85430 85324 85230 85129
1374.0327 84998 84829 84638 84449 84275 84117 83970 83826 83677 83516 83339
1379.3359 83147 82947 82748 82560 82387 82226 82067 81898 81716 81523 81330
1384.6393 81149 80988 80844 80710 80572 80418 80243 80051 79852 79648 79436
1389.9425 79217 78990 78762 78536 78312 78085 77851 77603 77336 77043 76721
1395.2458 76380 76038 75708 75398 75104 74821 74539 74251 73961 73681 73420
1400.5491 73176 72943 72716 72497 72287 72086 71884 71666 71416 71129 70817
1405.8524 70498 70173 69833 69468 69076 68667 68258 67862 67481 67106 66731
1411.1556 66356 65985 65620 65262 64909 64564 64232 63917 63622 63353 63115
1416.4590 62915 62757 62641 62568 62539 62555 62606 62671 62736 62805 62890
1421.7622 63007 63179 63433 63787 64220 64672 65093 65476 65854 66261 66712
1427.0656 67205 67731 68295 68942 69740 70730 71851 72964 73968 74873 75769
1432.3688 76739 77795 78856 79811 80598 81247 81851 82537 83374 84230 84850
1437.6721 85180 85345 85449 85536 85610 85653 85644 85567 85420 85211 84951
1442.9753 84644 84285 83864 83377 82834 82251 81634 80952 80132 79078 77760
1448.2787 76274 74773 73315 71847 70266 68510 66637 64891 63637 63169 63564
1453.5819 64719 66477 68700 71303 74235 77429 80674 83507 85461 86542 87093
1458.8853 87397 87587 87718 87820 87912 88004 88101 88206 88324 88468 88660
1464.1885 88916 89217 89495 89693 89813 89891 89957 90021 90085 90143 90191
1469.4918 90236 90283 90346 90430 90532 90614 90595 90439 90218 90014 89854
1474.7950 89734 89644 89575 89508 89430 89336 89231 89124 89024 88936 88863
1480.0984 88801 88739 88664 88568 88453 88327 88199 88074 87956 87849 87757
1485.4016 87678 87606 87523 87416 87282 87138 86994 86838 86627 86314 85906
1490.7050 85478 85083 84703 84293 83828 83310 82760 82208 81680 81214 80879
1496.0082 80767 80921 81307 81881 82629 83518 84427 85183 85682 85945 86060
1501.3115 86108 86134 86146 86144 86130 86114 86111 86133 86190 86280 86365
1506.6147 86361 86248 86094 85921 85731 85532 85341 85169 85017 84879 84748
1511.9181 84622 84505 84400 84309 84231 84165 84117 84089 84073 84032 83906
1517.2213 83691 83455 83255 83099 82979 82883 82803 82736 82675 82604 82512
1522.5247 82412 82314 82226 82151 82089 82035 81980 81918 81851 81791 81747
1527.8279 81724 81716 81710 81694 81664 81622 81573 81526 81493 81484 81500
1533.1312 81524 81521 81470 81386 81291 81202 81126 81067 81036 81045 81114
1538.4344 81265 81479 81623 81555 81368 81209 81104 81019 80915 80778 80617
1543.7378 80449 80285 80132 79989 79852 79720 79595 79482 79387 79318 79280
1549.0410 79270 79266 79234 79154 79043 78927 78825 78747 78700 78689 78705
1554.3444 78709 78668 78585 78484 78385 78306 78270 78320 78523 78794 78726
1559.6476 78395 78095 77864 77674 77504 77346 77196 77055 76920 76785 76642
1564.9509 76481 76308 76135 75974 75831 75709 75606 75521 75436 75320 75147
1570.2542 74936 74713 74483 74241 73982 73711 73449 73214 73020 72864 72719
1575.5575 72518 72179 71715 71245 70832 70464 70118 69784 69465 69167 68892
1580.8607 68639 68411 68225 68114 68122 68299 68687 69319 70211 71352 72695
1586.1641 74156 75628 76997 78168 79073 79686 80015 80096 79978 79712 79345
1591.4674 78916 78450 77963 77459 76935 76380 75788 75158 74494 73809 73116
1596.7706 72433 71780 71180 70650 70209 69871 69650 69560 69603 69773 70055
1602.0740 70436 70904 71442 72024 72619 73209 73794 74384 74991 75606 76204
1607.3772 76754 77242 77674 78060 78402 78682 78881 78993 79030 79007 78936
1612.6805 78819 78659 78469 78266 78064 77859 77616 77276 76827 76395 76124
1617.9838 76025 76054 76176 76366 76591 76812 76993 77123 77212 77275 77309
1623.2871 77291 77208 77086 76961 76852 76763 76689 76620 76544 76444 76309
1628.5903 76146 75971 75796 75623 75453 75280 75102 74917 74726 74533 74337
1633.8937 74142 73954 73799 73699 73624 73501 73305 73055 72779 72496 72217
1639.1969 71944 71674 71404 71135 70870 70610 70353 70096 69837 69580 69329
1644.5002 69084 68849 68632 68447 68292 68119 67861 67507 67106 66713 66358
1649.8035 66045 65764 65498 65237 64979 64743 64563 64382 64057 63669 63300
1655.1068 62957 62629 62303 61973 61633 61288 60944 60605 60276 59960 59663
1660.4100 59387 59131 58876 58590 58239 57831 57411 57018 56648 56278 55896
1665.7134 55509 55140 54808 54515 54239 53936 53566 53143 52735 52389 52085
1671.0166 51787 51484 51196 50945 50738 50566 50415 50276 50155 50062 49995
1676.3199 49933 49866 49798 49741 49709 49722 49796 49936 50125 50326 50508
1681.6232 50660 50779 50885 51060 51566 52755 54138 54947 55360 55683 56051
1686.9265 56515 57099 57815 58653 59579 60538 61480 62377 63226 64038 64822
1692.2297 65576 66284 66925 67492 68011 68577 69373 70554 71856 72770 73222
1697.5331 73418 73513 73585 73711 74084 75006 76208 76905 77122 77177 77225
1702.8363 77330 77523 77822 78221 78704 79260 79886 80556 81201 81756 82207
1708.1396 82594 82970 83375 83816 84263 84670 85012 85300 85561 85820 86096
1713.4429 86408 86775 87190 87605 87961 88240 88479 88754 89157 89691 90183
1718.7462 90500 90695 90862 91060 91308 91606 91940 92286 92621 92925 93185
1724.0494 93401 93586 93758 93933 94117 94304 94480 94634 94763 94876 94982
1729.3528 95087 95185 95262 95312 95349 95392 95461 95575 95721 95803 95689
1734.6560 95450 95242 95101 95005 94931 94863 94798 94741 94695 94653 94593
1739.9594 94496 94370 94237 94112 93998 93889 93777 93658 93535 93417 93310
1745.2626 93218 93142 93085 93043 93004 92951 92873 92774 92670 92574 92493
1750.5659 92435 92405 92407 92433 92469 92503 92532 92557 92585 92625 92683
1755.8691 92753 92814 92834 92796 92715 92623 92545 92492 92464 92455 92455
1761.1725 92446 92410 92346 92266 92185 92111 92044 91983 91928 91879 91832
1766.4757 91781 91718 91635 91537 91440 91363 91316 91300 91317 91368 91444
1771.7791 91501 91474 91360 91213 91075 90955 90847 90746 90648 90553 90463
1777.0823 90377 90296 90220 90153 90101 90063 90034 89997 89940 89862 89773
1782.3856 89687 89611 89547 89493 89444 89395 89342 89284 89223 89163 89103
1787.6888 89048 88998 88956 88926 88913 88925 88969 89055 89176 89300 89377
1792.9922 89383 89340 89283 89239 89221 89232 89259 89285 89296 89295 89300
1798.2954 89327 89387 89474 89565 89634 89674 89695 89715 89740 89768 89789
1803.5988 89795 89786 89769 89756 89756 89773 89801 89828 89839 89826 89797
1808.9020 89770 89767 89801 89868 89940 89983 89978 89934 89870 89808 89758
1814.2053 89723 89697 89677 89663 89655 89654 89656 89652 89635 89599 89549
1819.5085 89497 89459 89447 89465 89501 89531 89536 89508 89461 89422 89422
1824.8119 89477 89568 89650 89689 89687 89662 89636 89633 89671 89760 89880
1830.1151 89983 90038 90052 90047 90041 90042 90055 90074 90096 90112 90121
1835.4185 90123 90125 90136 90167 90217 90272 90308 90308 90267 90197 90123
1840.7217 90068 90046 90053 90081 90117 90149 90158 90128 90061 89986 89930
1846.0250 89904 89908 89938 89984 90032 90074 90108 90135 90156 90167 90164
1851.3282 90143 90104 90052 89994 89941 89904 89891 89905 89932 89954 89949
1856.6316 89908 89843 89775 89728 89712 89718 89723 89709 89667 89604 89539
1861.9348 89484 89448 89428 89417 89410 89406 89412 89432 89469 89520 89581
1867.2382 89643 89701 89749 89775 89764 89707 89605 89471 89323 89182 89068
1872.5414 88994 88967 88978 89014 89056 89088 89092 89061 88996 88915 88850
1877.8447 88830 88865 88936 89004 89027 88991 88914 88833 88786 88786 88822
1883.1479 88868 88901 88910 88893 88848 88770 88656 88520 88394 88321 88341
1888.4513 88466 88664 88851 88945 88922 88826 88719 88646 88620 88633 88667
1893.7545 88699 88712 88696 88644 88561 88454 88340 88233 88150 88102 88098
1899.0579 88137 88203 88277 88336 88371 88381 88370 88338 88274 88171 88039
1904.3611 87914 87846 87869 87974 88108 88201 88197 88093 87927 87758 87624
1909.6644 87531 87456 87383 87310 87248 87202 87161 87108 87031 86944 86873
1914.9677 86849 86884 86974 87106 87266 87441 87607 87738 87816 87840 87820
1920.2710 87770 87699 87619 87543 87488 87464 87470 87492 87523 87569 87652
1925.5742 87787 87967 88151 88277 88303 88236 88137 88087 88133 88256 88379
1930.8776 88416 88323 88129 87918 87779 87760 87853 88008 88172 88316 88438
1936.1808 88545 88643 88722 88770 88779 88755 88712 88665 88627 88605 88607
1941.4841 88642 88707 88770 88785 88717 88572 88391 88240 88188 88280 88509
1946.7874 88801 89052 89177 89152 89023 88886 88840 88939 89155 89394 89537
1952.0907 89507 89306 89011 88740 88595 88624 88804 89053 89272 89384 89364
1957.3939 89254 89129 89062 89070 89098 89056 88879 88587 88274 88038 87910
1962.6973 87832 87722 87556 87411 87416 87659 88091 88519 88691 88461 87911
1968.0005 87299 86873 86735 86839 87080 87373 87703 88099 88575 89078 89489
1973.3038 89674 89551 89143 88570 88001 87587 87409 87462 87669 87928 88154
1978.6071 88312 88410 88481 88553 88642 88750 88868 88981 89073 89133 89166
1983.9104 89187 89204 89201 89140 88985 88738 88460 88248 88189 88297 88496
1989.2136 88669 88737 88702 88637 88637 88742 88889 88941 88786 88416 87937
1994.5170 87521 87339 87500 87995 88702 89436 90033 90406 90567 90582 90523
1999.8202 90425 90288 90100 89873 89636 89420 89234 89062 88892 88729 88604
2005.1235 88544 88544 88560 88536 88447 88322 88217 88174 88185 88212 88229
2010.4268 88255 88350 88564 88885 89233 89504 89630 89620 89536 89438 89342
2015.7301 89218 89030 88789 88558 88407 88359 88377 88394 88366 88300 88236
2021.0333 88211 88231 88278 88341 88430 88567 88756 88957 89105 89148 89086
2026.3367 88984 88930 88980 89116 89255 89295 89177 88925 88634 88420 88346
2031.6399 88383 88432 88387 88211 87970 87789 87765 87904 88113 88262 88264
2036.9432 88120 87904 87719 87651 87752 88047 88530 89140 89750 90190 90323
2042.2465 90128 89720 89285 88968 88804 88705 88531 88190 87710 87239 86967
2047.5498 87031 87442 88067 88685 89091 89189 89031 88757 88507 88355 88306
2052.8530 88322 88369 88440 88546 88689 88839 88942 88946 88837 88641 88404
2058.1563 88173 87978 87844 87792 87830 87947 88095 88210 88237 88160 88002
2063.4597 87810 87630 87487 87387 87324 87284 87255 87224 87190 87163 87157
2068.7629 87182 87229 87269 87278 87253 87225 87235 87308 87430 87559 87648
2074.0662 87676 87656 87620 87590 87570 87540 87479 87375 87231 87069 86921
2079.3694 86819 86787 86822 86888 86925 86879 86730 86518 86319 86207 86217
2084.6729 86321 86459 86574 86646 86699 86769 86873 86993 87090 87128 87101
2089.9761 87027 86936 86847 86758 86659 86549 86441 86362 86344 86401 86533
2095.2793 86715 86918 87108 87263 87365 87404 87379 87304 87206 87124 87087
2100.5825 87103 87153 87202 87227 87231 87239 87273 87330 87375 87371 87303
2105.8860 87203 87127 87123 87201 87322 87431 87483 87467 87401 87309 87208
2111.1892 87101 86997 86916 86891 86950 87094 87290 87479 87607 87647 87612
2116.4924 87545 87490 87468 87466 87444 87370 87242 87101 87013 87034 87169
2121.7957 87367 87540 87602 87521 87330 87116 86971 86952 87057 87234 87409
2127.0991 87518 87533 87469 87374 87305 87309 87399 87556 87737 87892 87978
2132.4023 87979 87902 87783 87672 87609 87604 87626 87619 87529 87351 87130
2137.7056 86947 86873 86933 87094 87283 87419 87449 87365 87207 87050 86984
2143.0088 87074 87325 87667 87973 88117 88035 87768 87432 87160 87031 87041
2148.3123 87122 87193 87194 87111 86972 86836 86774 86844 87066 87404 87759
2153.6155 87994 87978 87639 86998 86172 85339 84680 84331 84349 84705 85294
2158.9187 85970 86587 87041 87273 87269 87049 86674 86245 85871 85633 85552
2164.2219 85598 85716 85867 86037 86228 86439 86655 86851 87010 87120 87168
2169.5254 87131 86974 86678 86262 85790 85356 85048 84906 84921 85040 85208
2174.8286 85389 85580 85785 86004 86221 86420 86610 86817 87062 87319 87509
2180.1318 87525 87309 86910 86479 86197 86168 86365 86652 86864 86896 86742
2185.4351 86470 86163 85874 85623 85420 85289 85263 85371 85606 85926 86262
2190.7385 86546 86737 86825 86828 86781 86713 86644 86577 86514 86461 86431
2196.0417 86434 86464 86498 86500 86446 86338 86199 86066 85962 85891 85844
2201.3450 85807 85771 85729 85672 85599 85518 85454 85452 85548 85753 86030
2206.6482 86306 86503 86576 86537 86439 86348 86304 86308 86337 86361 86364
2211.9517 86342 86295 86222 86125 86017 85917 85843 85803 85794 85807 85835
2217.2549 85864 85868 85806 85647 85403 85140 84958 84927 85052 85262 85465
2222.5581 85598 85670 85732 85829 85960 86078 86130 86100 86015 85918 85840
2227.8613 85779 85718 85646 85578 85540 85552 85607 85670 85695 85648 85519
2233.1648 85334 85143 84997 84931 84950 85028 85125 85209 85264 85292 85305
2238.4680 85313 85325 85346 85381 85426 85460 85456 85386 85252 85085 84941
2243.7712 84869 84881 84951 85026 85064 85057 85039 85057 85145 85297 85470
2249.0745 85605 85656 85611 85489 85329 85173 85056 85004 85022 85093 85172
2254.3779 85208 85164 85044 84895 84784 84756 84811 84906 84981 84995 84953
2259.6812 84897 84883 84948 85088 85261 85403 85457 85398 85243 85043 84857
2264.9844 84730 84678 84688 84733 84788 84837 84875 84899 84909 84902 84875
2270.2876 84829 84771 84711 84666 84655 84693 84781 84903 85027 85113 85129
2275.5911 85068 84949 84809 84688 84610 84574 84564 84557 84544 84527 84516
2280.8943 84517 84522 84513 84478 84420 84360 84324 84327 84363 84403 84419
2286.1975 84398 84349 84301 84283 84309 84371 84442 84489 84489 84436 84345
2291.5007 84249 84181 84164 84197 84258 84312 84331 84310 84266 84232 84235
2296.8042 84281 84352 84415 84441 84419 84359 84282 84209 84151 84107 84074
2302.1074 84051 84042 84056 84097 84160 84228 84280 84297 84272 84211 84135
2307.4106 84065 84019 84005 84018 84048 84086 84127 84175 84234 84302 84372
2312.7139 84431 84473 84498 84513 84521 84518 84494 84437 84347 84241 84147
2318.0173 84088 84075 84099 84141 84184 84216 84234 84236 84223 84196 84169
2323.3206 84157 84173 84215 84268 84309 84322 84303 84252 84180 84101 84036
2328.6238 84014 84054 84159 84304 84442 84532 84563 84555 84548 84566 84606
2333.9270 84642 84648 84610 84537 84445 84351 84264 84184 84113 84060 84035
2339.2305 84048 84096 84157 84203 84212 84183 84135 84095 84079 84086 84101
2344.5337 84102 84082 84043 83993 83934 83865 83789 83708 83631 83567 83526
2349.8369 83517 83545 83609 83694 83774 83828 83851 83857 83870 83916 84003
2355.1401 84121 84251 84387 84543 84740 84983 85247 85484 85648 85706 85645
2360.4436 85461 85161 84773 84361 84009 83782 83693 83694 83711 83702 83675
2365.7468 83677 83745 83873 84010 84096 84099 84036 83956 83898 83866 83823
2371.0500 83718 83526 83270 83018 82848 82805 82879 83013 83127 83165 83113
2376.3533 82997 82862 82749 82675 82642 82637 82650 82672 82698 82720 82733
2381.6567 82732 82716 82687 82649 82605 82558 82511 82467 82427 82392 82360
2386.9600 82330 82304 82285 82276 82278 82285 82290 82286 82269 82243 82209
2392.2632 82170 82123 82071 82016 81971 81948 81954 81987 82033 82075 82100
2397.5664 82102 82086 82059 82023 81981 81933 81879 81824 81778 81746 81735
2402.8699 81743 81760 81776 81781 81772 81751 81727 81708 81698 81695 81693
2408.1731 81685 81673 81659 81650 81650 81658 81669 81676 81671 81651 81617
2413.4763 81573 81528 81490 81464 81451 81446 81446 81446 81448 81454 81467
2418.7795 81483 81496 81501 81498 81492 81489 81489 81487 81470 81430 81370
2424.0830 81305 81256 81236 81245 81266 81276 81260 81217 81159 81107 81074
2429.3862 81069 81088 81122 81160 81195 81219 81227 81216 81185 81137 81083
2434.6895 81036 81009 81005 81017 81030 81029 81008 80971 80933 80908 80902
2439.9927 80910 80923 80931 80929 80917 80896 80870 80839 80805 80770 80732
2445.2961 80691 80645 80599 80564 80555 80579 80633 80695 80738 80742 80702
2450.5994 80634 80566 80517 80496 80490 80479 80449 80398 80340 80294 80273
2455.9026 80279 80301 80327 80343 80342 80325 80295 80261 80231 80214 80208
2461.2058 80207 80198 80171 80127 80077 80033 80006 79994 79987 79971 79940
2466.5093 79896 79844 79794 79753 79725 79713 79715 79727 79741 79746 79736
2471.8125 79713 79686 79664 79652 79645 79630 79596 79542 79475 79410 79362
2477.1157 79337 79334 79347 79367 79386 79398 79396 79376 79338 79290 79246
2482.4189 79218 79213 79227 79247 79264 79274 79282 79295 79314 79335 79348
2487.7224 79347 79330 79300 79263 79220 79166 79098 79020 78942 78879 78841
2493.0256 78831 78839 78851 78857 78852 78838 78816 78786 78748 78706 78669
2498.3289 78646 78640 78644 78644 78624 78579 78517 78451 78394 78354 78333
2503.6321 78331 78343 78364 78381 78385 78368 78335 78296 78265 78248 78244
2508.9355 78245 78245 78244 78242 78240 78231 78211 78177 78141 78117 78118
2514.2388 78143 78175 78190 78170 78111 78027 77944 77881 77844 77826 77811
2519.5420 77786 77751 77714 77686 77674 77672 77665 77641 77597 77541 77486
2524.8452 77441 77404 77365 77316 77261 77212 77184 77187 77219 77270 77324
2530.1487 77366 77381 77358 77292 77186 77062 76949 76878 76864 76899 76958
2535.4519 77010 77033 77024 76991 76946 76898 76849 76797 76744 76698 76668
2540.7551 76660 76673 76698 76718 76721 76701 76662 76617 76580 76558 76553
2546.0583 76558 76566 76572 76576 76580 76586 76590 76585 76566 76535 76502
2551.3618 76480 76480 76499 76527 76545 76543 76519 76485 76452 76429 76417
2556.6650 76418 76435 76474 76540 76623 76706 76769 76802 76815 76826 76853
2561.9683 76903 76964 77023 77067 77094 77109 77121 77137 77163 77204 77267
2567.2715 77351 77452 77559 77662 77755 77840 77921 78007 78104 78214 78335
2572.5750 78463 78587 78696 78784 78856 78924 79006 79112 79237 79367 79484
2577.8782 79581 79663 79742 79826 79912 79985 80033 80055 80064 80081 80120
2583.1814 80181 80253 80320 80371 80403 80421 80428 80427 80417 80401 80384
2588.4849 80369 80358 80343 80316 80272 80215 80159 80114 80082 80055 80016
2593.7881 79950 79858 79751 79651 79574 79526 79501 79484 79460 79420 79364
2599.0913 79301 79241 79197 79173 79167 79168 79164 79148 79121 79090 79068
2604.3945 79064 79082 79120 79170 79221 79263 79292 79307 79315 79327 79355
2609.6980 79408 79489 79590 79701 79807 79893 79954 79991 80011 80025 80042
2615.0012 80068 80106 80149 80190 80221 80237 80237 80225 80209 80193 80182
2620.3044 80175 80171 80167 80161 80151 80135 80112 80083 80051 80018 79984
2625.6077 79948 79907 79862 79815 79772 79738 79711 79686 79657 79620 79574
2630.9111 79528 79484 79443 79403 79361 79316 79272 79234 79202 79175 79145
2636.2144 79110 79071 79034 79002 78980 78967 78959 78952 78944 78933 78919
2641.5176 78906 78899 78902 78914 78932 78948 78957 78956 78947 78932 78918
2646.8208 78906 78899 78897 78899 78904 78908 78907 78899 78879 78850 78814
2652.1243 78777 78742 78713 78688 78668 78649 78634 78626 78626 78636 78649
2657.4275 78660 78667 78667 78665 78663 78660 78652 78635 78606 78570 78533
2662.7307 78501 78479 78470 78474 78489 78511 78535 78554 78564 78564 78558
2668.0339 78554 78558 78571 78592 78615 78636 78655 78676 78703 78734 78766
2673.3374 78795 78816 78834 78852 78877 78908 78945 78981 79014 79042 79066
2678.6406 79088 79108 79127 79149 79180 79224 79281 79346 79411 79468 79514
2683.9438 79555 79598 79653 79721 79801 79885 79967 80041 80107 80168 80231
2689.2471 80299 80375 80455 80537 80616 80694 80777 80874 80990 81122 81263
2694.5505 81397 81513 81604 81675 81738 81808 81895 82002 82120 82239 82345
2699.8538 82431 82498 82549 82592 82631 82672 82715 82758 82800 82837 82867
2705.1570 82888 82899 82901 82897 82891 82885 82880 82877 82872 82863 82847
2710.4602 82822 82792 82760 82731 82709 82694 82681 82664 82634 82589 82530
2715.7637 82461 82389 82321 82262 82213 82173 82141 82113 82088 82065 82043
2721.0669 82021 82000 81980 81967 81965 81976 81997 82020 82036 82038 82027
2726.3701 82009 81995 81992 82001 82019 82042 82067 82098 82137 82187 82242
2731.6733 82295 82337 82364 82379 82389 82404 82429 82463 82502 82537 82563
2736.9768 82579 82586 82588 82592 82598 82608 82618 82624 82621 82603 82571
2742.2800 82530 82486 82451 82428 82418 82413 82401 82373 82326 82267 82205
2747.5833 82152 82113 82088 82073 82060 82045 82027 82004 81978 81947 81910
2752.8865 81867 81818 81768 81720 81680 81656 81651 81667 81698 81732 81753
2758.1899 81750 81724 81683 81644 81619 81609 81606 81598 81579 81551 81525
2763.4932 81509 81504 81504 81501 81490 81477 81469 81471 81480 81488 81484
2768.7964 81462 81425 81382 81344 81317 81303 81297 81291 81279 81258 81226
2774.0996 81183 81132 81075 81019 80966 80917 80875 80837 80805 80780 80761
2779.4031 80746 80728 80705 80680 80659 80651 80657 80674 80692 80705 80711
2784.7063 80716 80724 80735 80744 80741 80722 80687 80644 80598 80553 80510
2790.0095 80466 80418 80365 80308 80249 80192 80140 80095 80057 80023 79990
2795.3127 79957 79925 79897 79873 79854 79835 79812 79779 79735 79683 79630
2800.6162 79582 79546 79522 79506 79491 79473 79446 79410 79367 79319 79269
2805.9194 79220 79173 79128 79085 79047 79015 78989 78970 78952 78931 78902
2811.2227 78867 78831 78801 78781 78770 78763 78754 78737 78714 78689 78666
2816.5259 78652 78649 78654 78661 78662 78648 78620 78582 78548 78527 78524
2821.8293 78535 78550 78560 78560 78556 78554 78562 78579 78598 78611 78613
2827.1326 78609 78608 78620 78648 78687 78726 78753 78764 78763 78757 78754
2832.4358 78756 78763 78770 78778 78791 78810 78835 78865 78896 78925 78955
2837.7390 78990 79031 79078 79125 79170 79211 79255 79307 79374 79455 79545
2843.0425 79633 79710 79768 79806 79826 79832 79832 79833 79847 79879 79934
2848.3457 80004 80082 80157 80222 80280 80340 80409 80491 80582 80674 80759
2853.6489 80831 80889 80935 80972 81006 81040 81079 81123 81164 81193 81199
2858.9521 81180 81144 81104 81075 81063 81066 81071 81067 81048 81015 80973
2864.2556 80927 80882 80839 80799 80767 80747 80739 80742 80751 80760 80765
2869.5588 80764 80755 80739 80719 80696 80674 80657 80649 80650 80656 80663
2874.8621 80666 80665 80663 80666 80677 80696 80719 80739 80753 80761 80766
2880.1653 80771 80780 80797 80820 80844 80863 80871 80865 80850 80836 80836
2885.4688 80858 80905 80972 81047 81119 81175 81211 81227 81232 81239 81260
2890.7720 81296 81342 81387 81421 81445 81466 81494 81534 81584 81637 81683
2896.0752 81718 81744 81766 81790 81823 81869 81930 82002 82080 82154 82218
2901.3784 82267 82301 82320 82327 82325 82319 82315 82324 82351 82397 82457
2906.6819 82525 82590 82648 82691 82718 82729 82725 82711 82694 82679 82671
2911.9851 82671 82680 82700 82732 82774 82826 82885 82951 83019 83085 83139
2917.2883 83175 83190 83187 83175 83163 83157 83159 83166 83179 83197 83223
2922.5916 83256 83290 83316 83325 83317 83297 83277 83265 83262 83264 83264
2927.8950 83261 83259 83264 83277 83293 83300 83291 83266 83230 83195 83165
2933.1982 83138 83107 83065 83014 82957 82902 82853 82809 82768 82727 82685
2938.5015 82644 82601 82555 82504 82451 82402 82363 82339 82329 82330 82336
2943.8047 82344 82352 82362 82375 82393 82414 82437 82458 82471 82469 82447
2949.1082 82406 82356 82312 82293 82309 82356 82420 82478 82515 82522 82506
2954.4114 82483 82468 82470 82490 82519 82544 82554 82549 82533 82514 82501
2959.7146 82496 82494 82492 82485 82472 82453 82427 82397 82365 82337 82318
2965.0178 82310 82311 82314 82310 82297 82274 82247 82221 82199 82184 82175
2970.3213 82170 82167 82163 82156 82148 82143 82144 82147 82147 82135 82107
2975.6245 82064 82015 81971 81941 81927 81925 81927 81924 81912 81891 81869
2980.9277 81857 81861 81878 81898 81906 81892 81861 81826 81809 81821 81858
2986.2310 81904 81937 81943 81918 81879 81845 81834 81850 81885 81922 81947
2991.5344 81953 81949 81947 81958 81986 82024 82060 82084 82094 82090 82078
2996.8376 82058 82033 82004 81976 81956 81949 81953 81961 81964 81956 81939
3002.1409 81920 81907 81902 81901 81901 81899 81900 81912 81941 81983 82028
3007.4441 82066 82091 82106 82120 82143 82178 82221 82264 82300 82328 82348
3012.7476 82363 82374 82385 82399 82421 82455 82500 82550 82596 82632 82656
3018.0508 82674 82692 82720 82760 82810 82865 82918 82963 82999 83023 83040
3023.3540 83051 83062 83077 83098 83123 83150 83177 83206 83239 83280 83328
3028.6572 83380 83431 83480 83528 83580 83642 83712 83783 83842 83878 83885
3033.9607 83865 83829 83795 83780 83794 83838 83906 83983 84057 84118 84169
3039.2639 84215 84267 84328 84395 84455 84495 84507 84492 84462 84436 84429
3044.5671 84449 84488 84533 84568 84582 84576 84556 84534 84517 84508 84504
3049.8704 84501 84495 84486 84477 84470 84463 84451 84430 84397 84356 84310
3055.1738 84259 84200 84126 84035 83933 83829 83736 83657 83589 83528 83471
3060.4771 83423 83391 83379 83384 83395 83403 83400 83386 83362 83335 83307
3065.7803 83280 83249 83206 83140 83042 82911 82759 82610 82492 82429 82433
3071.0835 82502 82624 82786 82983 83213 83477 83772 84088 84413 84731 85030
3076.3870 85301 85541 85747 85919 86059 86168 86250 86313 86365 86413 86464
3081.6902 86523 86589 86656 86714 86755 86771 86763 86741 86719 86713 86730
3086.9934 86767 86812 86848 86865 86859 86837 86809 86784 86770 86771 86787
3092.2966 86816 86854 86894 86928 86953 86971 86993 87031 87095 87184 87287
3097.6001 87385 87460 87500 87508 87498 87487 87491 87510 87535 87553 87554
3102.9033 87539 87522 87519 87541 87588 87648 87704 87739 87748 87735 87716
3108.2065 87709 87723 87762 87818 87882 87945 88002 88051 88089 88114 88124
3113.5098 88121 88112 88109 88120 88145 88181 88221 88260 88296 88326 88344
3118.8132 88345 88327 88299 88279 88284 88324 88392 88473 88550 88610 88652
3124.1165 88678 88692 88695 88691 88688 88694 88717 88752 88789 88814 88818
3129.4197 88807 88798 88806 88839 88888 88936 88961 88959 88942 88940 88976
3134.7229 89056 89164 89265 89326 89333 89293 89233 89180 89151 89147 89158
3140.0264 89169 89173 89170 89171 89185 89216 89261 89307 89338 89344 89324
3145.3296 89288 89257 89252 89280 89337 89408 89473 89518 89541 89547 89546
3150.6328 89544 89542 89541 89540 89544 89557 89579 89611 89647 89682 89711
3155.9360 89729 89732 89722 89704 89689 89683 89692 89709 89724 89730 89723
3161.2395 89709 89697 89699 89718 89755 89808 89867 89923 89967 89993 90003
3166.5427 90003 90001 90000 89998 89992 89983 89979 89989 90018 90061 90104
3171.8459 90136 90151 90155 90159 90169 90188 90211 90231 90246 90259 90275
3177.1492 90297 90323 90347 90363 90368 90362 90350 90337 90329 90327 90329
3182.4526 90331 90331 90328 90326 90328 90335 90347 90364 90387 90415 90446
3187.7559 90476 90499 90511 90517 90523 90537 90562 90590 90611 90618 90609
3193.0591 90591 90578 90579 90600 90641 90695 90751 90795 90815 90806 90774
3198.3623 90736 90708 90701 90714 90741 90776 90815 90861 90913 90963 90996
3203.6658 90998 90961 90896 90823 90771 90759 90796 90873 90968 91058 91120
3208.9690 91143 91131 91094 91052 91015 90990 90973 90964 90962 90971 90997
3214.2722 91041 91097 91156 91212 91263 91308 91349 91379 91393 91386 91360
3219.5754 91324 91284 91242 91195 91138 91076 91017 90978 90968 90990 91039
3224.8789 91107 91188 91275 91361 91435 91486 91510 91517 91525 91548 91592
3230.1821 91646 91686 91693 91656 91585 91502 91432 91394 91389 91407 91432
3235.4854 91451 91458 91461 91473 91505 91560 91632 91706 91765 91800 91810
3240.7886 91803 91793 91793 91812 91846 91884 91912 91917 91895 91857 91819
3246.0920 91800 91806 91833 91868 91898 91914 91918 91916 91913 91912 91911
3251.3953 91909 91906 91906 91912 91923 91932 91935 91932 91927 91932 91951
3256.6985 91986 92028 92067 92096 92114 92122 92122 92115 92105 92093 92086
3262.0017 92091 92110 92142 92179 92209 92224 92223 92209 92191 92173 92160
3267.3052 92150 92145 92150 92168 92196 92224 92237 92229 92207 92191 92203
3272.6084 92254 92334 92417 92474 92491 92471 92433 92399 92384 92393 92418
3277.9116 92442 92452 92437 92401 92356 92317 92298 92302 92320 92337 92340
3283.2148 92326 92305 92287 92286 92303 92333 92365 92387 92394 92387 92379
3288.5183 92385 92415 92472 92541 92601 92632 92626 92590 92542 92499 92470
3293.8215 92452 92437 92417 92393 92370 92359 92362 92375 92388 92394 92394
3299.1248 92396 92412 92449 92505 92568 92623 92657 92663 92643 92603 92552
3304.4280 92500 92453 92417 92397 92391 92395 92402 92404 92397 92384 92373
3309.7314 92375 92396 92435 92486 92537 92577 92601 92611 92613 92617 92627
3315.0347 92640 92644 92627 92581 92513 92440 92382 92358 92373 92421 92489
3320.3379 92564 92638 92708 92773 92828 92863 92864 92821 92736 92622 92505
3325.6411 92414 92367 92369 92405 92453 92496 92524 92543 92563 92595 92641
3330.9446 92699 92762 92826 92884 92934 92967 92979 92967 92935 92890 92841
3336.2478 92795 92757 92729 92715 92719 92744 92785 92834 92881 92913 92923
3341.5510 92908 92869 92814 92755 92704 92671 92665 92684 92730 92798 92883
3346.8542 92975 93059 93115 93128 93095 93024 92935 92845 92768 92711 92673
3352.1577 92656 92658 92683 92729 92789 92852 92903 92932 92938 92931 92924
3357.4609 92929 92945 92962 92966 92947 92907 92859 92820 92805 92820 92859
3362.7642 92912 92966 93010 93039 93052 93052 93045 93035 93024 93010 92987
3368.0674 92947 92888 92815 92744 92692 92673 92691 92737 92791 92837 92865
3373.3708 92880 92893 92913 92943 92977 93004 93019 93020 93008 92986 92955
3378.6741 92917 92877 92839 92809 92790 92783 92791 92816 92859 92916 92976
3383.9773 93024 93045 93036 93003 92964 92935 92926 92939 92963 92982 92983
3389.2805 92958 92911 92855 92808 92781 92777 92794 92823 92859 92901 92949
3394.5840 93002 93053 93097 93131 93156 93174 93185 93182 93155 93099 93019
3399.8872 92932 92859 92813 92797 92800 92808 92810 92806 92804 92813 92841
3405.1904 92886 92940 92994 93037 93066 93079 93078 93063 93034 92994 92948
3410.4937 92904 92871 92854 92848 92849 92850 92851 92853 92860 92868 92875
3415.7971 92875 92870 92861 92856 92856 92862 92874 92889 92908 92924 92930
3421.1003 92921 92897 92869 92854 92861 92890 92929 92960 92973 92970 92960
3426.4036 92956 92964 92980 92998 93007 93000 92976 92935 92885 92839 92811
3431.7068 92814 92850 92911 92979 93032 93059 93058 93036 93005 92973 92941
3437.0103 92908 92871 92834 92808 92803 92828 92878 92942 93002 93042 93056
3442.3135 93044 93013 92974 92938 92912 92905 92920 92952 92989 93011 93006
3447.6167 92970 92918 92866 92825 92797 92777 92758 92736 92714 92697 92693
3452.9199 92707 92738 92780 92821 92848 92855 92841 92814 92786 92763 92747
3458.2234 92736 92727 92727 92741 92775 92824 92872 92901 92900 92872 92834
3463.5266 92802 92787 92787 92796 92807 92823 92848 92886 92932 92975 92999
3468.8298 92995 92965 92921 92877 92846 92829 92822 92821 92821 92824 92830
3474.1331 92838 92840 92834 92824 92818 92825 92846 92874 92896 92904 92900
3479.4365 92895 92898 92911 92929 92942 92941 92929 92911 92891 92874 92861
3484.7397 92854 92857 92870 92890 92908 92915 92906 92881 92849 92819 92800
3490.0430 92793 92796 92807 92824 92844 92865 92885 92901 92910 92910 92895
3495.3462 92861 92809 92746 92689 92657 92664 92709 92777 92844 92888 92899
3500.6497 92883 92852 92822 92800 92789 92789 92796 92807 92814 92809 92788
3505.9529 92755 92720 92695 92689 92703 92736 92782 92833 92881 92912 92919
3511.2561 92899 92862 92821 92794 92787 92799 92818 92837 92847 92847 92834
3516.5593 92807 92768 92726 92697 92697 92731 92785 92840 92873 92874 92848
3521.8628 92808 92773 92754 92754 92766 92785 92808 92837 92871 92907 92941
3527.1660 92968 92985 92988 92975 92944 92899 92851 92814 92799 92808 92828
3532.4692 92843 92838 92815 92786 92770 92778 92806 92833 92833 92795 92731
3537.7725 92664 92620 92614 92648 92707 92769 92815 92834 92829 92809 92786
3543.0759 92770 92770 92785 92813 92854 92905 92961 93013 93041 93025 92957
3548.3792 92842 92705 92576 92485 92451 92483 92572 92693 92810 92893 92925
3553.6824 92909 92860 92800 92751 92727 92727 92739 92749 92747 92738 92730
3558.9856 92729 92726 92709 92671 92620 92575 92553 92557 92575 92587 92582
3564.2891 92566 92562 92598 92694 92838 92981 93064 93064 93004 92917 92828
3569.5923 92752 92695 92664 92659 92677 92707 92735 92748 92740 92712 92671
3574.8955 92628 92591 92569 92564 92578 92606 92642 92676 92698 92702 92689
3580.1990 92665 92639 92622 92617 92624 92636 92643 92635 92608 92564 92511
3585.5022 92461 92431 92437 92487 92569 92658 92729 92768 92771 92747 92706
3590.8054 92661 92622 92596 92590 92601 92629 92668 92715 92762 92800 92819
3596.1086 92816 92793 92756 92712 92667 92632 92618 92631 92673 92733 92792
3601.4121 92831 92838 92812 92758 92686 92611 92544 92498 92479 92487 92512
3606.7153 92544 92581 92629 92694 92763 92808 92809 92769 92712 92665 92652
3612.0186 92685 92756 92837 92899 92934 92943 92932 92901 92854 92798 92748
3617.3218 92722 92731 92774 92826 92859 92854 92815 92755 92688 92621 92557
3622.6252 92498 92444 92403 92383 92396 92445 92520 92601 92664 92696 92695
3627.9285 92683 92691 92720 92718 92652 92541 92418 92311 92247 92252 92343
3633.2317 92507 92692 92831 92890 92874 92816 92745 92684 92645 92622 92597
3638.5349 92556 92495 92426 92364 92325 92312 92323 92347 92374 92395 92404
3643.8384 92399 92381 92359 92351 92385 92478 92618 92739 92768 92698 92590
3649.1416 92528 92568 92685 92780 92790 92727 92636 92547 92480 92438 92424
3654.4448 92441 92491 92565 92625 92631 92571 92474 92371 92282 92218 92182
3659.7480 92171 92175 92186 92198 92210 92222 92235 92245 92248 92237 92214
3665.0515 92185 92161 92157 92182 92235 92308 92384 92447 92497 92555 92646
3670.3547 92757 92839 92865 92841 92791 92738 92707 92728 92841 93051 93221
3675.6580 93179 93000 92823 92701 92635 92613 92611 92604 92573 92525 92486
3680.9612 92478 92508 92562 92618 92648 92636 92581 92498 92408 92326 92259
3686.2646 92214 92210 92276 92440 92677 92897 93029 93059 93007 92903 92787
3691.5679 92695 92641 92615 92603 92592 92578 92558 92532 92495 92445 92389
3696.8711 92342 92325 92347 92400 92462 92507 92524 92517 92504 92498 92495
3702.1743 92472 92423 92365 92328 92340 92404 92494 92560 92562 92500 92411
3707.4778 92352 92372 92487 92655 92797 92857 92837 92780 92727 92688 92644
3712.7810 92583 92513 92452 92405 92368 92327 92273 92212 92167 92166 92228
3718.0842 92346 92476 92562 92581 92548 92503 92482 92504 92558 92603 92603
3723.3875 92557 92487 92421 92378 92366 92369 92360 92320 92260 92206 92186
3728.6909 92215 92294 92421 92591 92796 93009 93170 93218 93141 92978 92786
3733.9941 92618 92535 92576 92694 92780 92768 92674 92544 92426 92351 92332
3739.2974 92372 92462 92578 92680 92730 92709 92619 92474 92301 92170 92221
3744.6006 92478 92719 92817 92803 92729 92637 92570 92580 92708 92922 93103
3749.9041 93146 93050 92876 92697 92573 92518 92501 92492 92483 92477 92478
3755.2073 92486 92495 92499 92494 92486 92478 92474 92478 92492 92519 92549
3760.5105 92565 92557 92518 92456 92386 92334 92324 92371 92468 92584 92667
3765.8137 92672 92606 92509 92421 92364 92349 92378 92439 92497 92519 92504
3771.1172 92467 92425 92383 92341 92297 92253 92213 92187 92182 92199 92235
3776.4204 92282 92330 92376 92420 92466 92515 92557 92577 92561 92509 92429
3781.7236 92335 92247 92188 92181 92234 92335 92446 92528 92558 92542 92502
3787.0269 92461 92432 92415 92402 92381 92346 92299 92254 92225 92222 92244
3792.3303 92282 92320 92349 92366 92380 92403 92442 92493 92533 92536 92497
3797.6335 92438 92383 92350 92349 92390 92478 92609 92743 92816 92808 92758
3802.9368 92699 92643 92588 92533 92481 92442 92428 92447 92476 92483 92457
3808.2400 92412 92365 92324 92290 92256 92219 92183 92159 92157 92174 92200
3813.5435 92221 92231 92240 92278 92375 92515 92625 92661 92637 92584 92532
3818.8467 92507 92539 92660 92877 93106 93214 93177 93062 92919 92765 92606
3824.1499 92449 92310 92214 92183 92224 92313 92403 92457 92466 92445 92414
3829.4531 92390 92384 92397 92415 92413 92381 92330 92285 92266 92286 92337
3834.7566 92399 92448 92486 92539 92636 92780 92924 92998 92981 92911 92843
3840.0598 92800 92776 92749 92703 92642 92579 92529 92499 92482 92460 92419
3845.3630 92358 92288 92221 92171 92146 92145 92160 92177 92187 92190 92197
3850.6663 92220 92276 92386 92577 92864 93176 93335 93269 93077 92859 92662
3855.9697 92508 92407 92362 92358 92365 92357 92325 92280 92238 92219 92236
3861.2729 92281 92327 92356 92375 92409 92490 92617 92738 92769 92690 92548
3866.5762 92396 92265 92163 92099 92088 92158 92318 92499 92610 92637 92616
3871.8794 92586 92583 92631 92725 92809 92808 92710 92569 92441 92357 92315
3877.1829 92297 92280 92254 92225 92218 92259 92343 92422 92456 92446 92417
3882.4861 92390 92372 92366 92373 92399 92452 92523 92578 92585 92535 92444
3887.7893 92331 92215 92116 92053 92048 92117 92248 92390 92477 92484 92436
3893.0925 92370 92318 92299 92315 92351 92388 92412 92424 92435 92458 92496
3898.3960 92531 92531 92482 92406 92342 92318 92340 92383 92415 92414 92390
3903.6992 92370 92378 92410 92443 92452 92431 92389 92337 92281 92227 92179
3909.0024 92144 92128 92136 92167 92212 92260 92300 92320 92312 92274 92215
3914.3057 92154 92115 92118 92169 92248 92312 92326 92292 92239 92202 92200
3919.6091 92233 92277 92303 92298 92268 92230 92202 92198 92222 92270 92325
3924.9124 92366 92381 92368 92334 92289 92244 92207 92182 92174 92183 92211
3930.2156 92262 92333 92411 92470 92483 92442 92366 92286 92228 92201 92204
3935.5188 92228 92265 92306 92340 92356 92341 92291 92215 92131 92057 92003
3940.8223 91976 91980 92022 92102 92207 92304 92364 92374 92338 92274 92207
3946.1255 92162 92156 92193 92264 92351 92434 92494 92520 92506 92460 92396
3951.4287 92329 92268 92215 92166 92122 92086 92071 92087 92138 92211 92288
3956.7319 92346 92375 92377 92364 92348 92332 92314 92288 92253 92215 92185
3962.0354 92171 92176 92194 92220 92245 92263 92268 92256 92224 92178 92126
3967.3386 92084 92063 92071 92104 92150 92201 92249 92293 92334 92368 92387
3972.6418 92387 92369 92340 92309 92281 92261 92248 92238 92229 92214 92189
3977.9451 92152 92108 92073 92060 92080 92126 92183 92230 92258 92266 92262
3983.2485 92252 92239 92219 92195 92170 92155 92156 92171 92191 92206 92208
3988.5518 92200 92186 92177 92180 92197 92226 92260 92289 92303 92294 92257
3993.8550 92198 92128 92065 92025 92019 92047 92107 92190 92288 92385 92462
3999.1582 92499 92485 92421
##END= 
