##TITLE= STDPROPOLPIDROSSIBENZOATO
##JCAMP-DX= 4.24
##DATA TYPE= INFRARED SPECTRUM
##ORIGIN= JASCO
##OWNER= 
##DATE= 22/03/30
##TIME= 18:26:38
##SPECTROMETER/DATA SYSTEM= 
##RESOLUTION= 
##DELTAX=   0.48211674
##XUNITS= 1/CM
##YUNITS= TRANSMITTANCE
##XFACTOR= 1.00000
##YFACTOR= 1E-005
##FIRSTX=   599.7532
##LASTX=  4000.1226
##NPOINTS=     7054
##FIRSTY=      0.66481
##MAXY=      0.97032
##MINY=      0.44215
##XYDATA= (X++(Y..Y))
599.7532 66481 66408 66272 66120 65988 65883 65788 65691 65587 65464 65286
605.0565 65000 64570 64007 63376 62769 62259 61870 61573 61311 61025 60669
610.3598 60214 59653 59008 58334 57702 57184 56822 56619 56541 56524 56485
615.6631 56326 55943 55253 54244 53023 51822 50949 50705 51326 52929 55463
620.9664 58671 62120 65323 67904 69703 70773 71298 71496 71547 71550 71527
626.2697 71444 71256 70937 70500 69987 69449 68919 68396 67855 67276 66674
631.5729 66108 65650 65337 65128 64911 64549 63946 63095 62073 61011 60053
636.8762 59329 58947 58994 59505 60442 61682 63036 64310 65363 66133 66628
642.1795 66891 66968 66898 66721 66481 66228 66003 65824 65680 65537 65357
647.4828 65116 64825 64524 64258 64053 63897 63754 63591 63397 63185 62974
652.7861 62780 62610 62467 62359 62287 62233 62152 62000 61756 61450 61148
658.0894 60911 60766 60692 60646 60594 60531 60469 60415 60356 60275 60161
663.3926 60024 59881 59738 59579 59375 59093 58700 58175 57548 57086 57375
668.6959 58341 59113 59447 59519 59478 59409 59350 59304 59252 59166 59043
673.9992 58916 58839 58851 58945 59067 59142 59130 59056 59011 59093 59354
679.3025 59758 60188 60495 60555 60318 59818 59153 58435 57766 57212 56807
684.6058 56553 56425 56376 56345 56257 56030 55589 54908 54037 53112 52301
689.9091 51736 51460 51409 51447 51420 51221 50819 50252 49597 48949 48408
695.2123 48071 48029 48354 49086 50214 51653 53253 54830 56223 57352 58238
700.5156 58987 59730 60550 61442 62313 63046 63571 63907 64145 64388 64698
705.8189 65081 65515 65978 66456 66934 67376 67736 67981 68112 68170 68217
711.1222 68312 68483 68730 69031 69357 69682 69990 70280 70563 70853 71163
716.4255 71487 71807 72100 72343 72530 72665 72769 72864 72975 73114 73283
721.7288 73478 73693 73922 74158 74382 74575 74717 74811 74873 74926 74982
727.0320 75027 75035 74990 74910 74847 74854 74959 75138 75333 75494 75612
732.3353 75725 75884 76111 76377 76618 76777 76836 76831 76821 76859 76965
737.6386 77131 77337 77572 77841 78150 78503 78883 79264 79610 79896 80120
742.9419 80311 80525 80824 81240 81745 82249 82640 82837 82838 82709 82530
748.2452 82335 82086 81705 81138 80406 79584 78753 77932 77078 76123 75035
753.5485 73834 72573 71299 70031 68784 67599 66560 65763 65271 65074 65088
758.8517 65208 65365 65559 65832 66214 66674 67116 67421 67514 67406 67189
764.1550 66969 66804 66672 66481 66118 65488 64538 63265 61703 59911 57968
769.4583 55966 54018 52257 50828 49866 49477 49719 50593 52048 53997 56334
774.7616 58945 61715 64527 67263 69815 72101 74079 75742 77101 78174 78979
780.0649 79535 79880 80071 80172 80238 80292 80335 80356 80352 80339 80340
785.3682 80373 80432 80492 80524 80512 80461 80384 80294 80193 80079 79954
790.6714 79835 79749 79720 79753 79828 79910 79962 79971 79941 79897 79858
795.9747 79827 79789 79724 79617 79477 79325 79183 79059 78942 78809 78639
801.2780 78417 78135 77788 77380 76926 76457 76012 75627 75313 75057 74841
806.5813 74659 74535 74521 74666 75000 75511 76149 76842 77511 78092 78544
811.8846 78858 79049 79150 79189 79181 79126 79023 78886 78750 78665 78669
817.1879 78770 78939 79120 79260 79331 79342 79324 79302 79279 79230 79120
822.4911 78933 78679 78397 78129 77900 77704 77517 77308 77052 76736 76348
827.7944 75872 75283 74549 73647 72574 71365 70113 68961 68081 67622 67654
833.0977 68144 68962 69930 70887 71728 72414 72951 73353 73626 73759 73736
838.4010 73549 73198 72694 72052 71286 70401 69390 68226 66861 65233 63285
843.7043 60994 58388 55564 52683 49949 47585 45799 44762 44586 45310 46890
849.0076 49203 52061 55243 58525 61713 64662 67281 69522 71369 72832 73946
854.3109 74772 75384 75857 76241 76551 76769 76869 76834 76673 76418 76118
859.6141 75822 75579 75429 75411 75554 75871 76351 76955 77627 78300 78908
864.9174 79398 79743 79944 80032 80052 80049 80052 80070 80092 80101 80082
870.2207 80033 79957 79864 79765 79669 79585 79516 79461 79419 79391 79377
875.5240 79378 79386 79382 79348 79272 79163 79044 78943 78871 78822 78774
880.8273 78708 78619 78514 78405 78293 78171 78030 77868 77689 77494 77273
886.1306 76999 76644 76199 75691 75177 74731 74422 74290 74338 74533 74822
891.4338 75148 75464 75747 75991 76203 76389 76552 76686 76793 76878 76956
896.7371 77034 77110 77168 77187 77157 77088 77005 76939 76909 76916 76946
902.0404 76977 76992 76980 76941 76884 76817 76752 76690 76629 76557 76468
907.3437 76361 76247 76138 76043 75958 75869 75757 75609 75421 75199 74954
912.6470 74693 74423 74146 73866 73592 73341 73143 73031 73037 73178 73447
917.9503 73820 74264 74744 75233 75711 76155 76543 76856 77083 77224 77293
923.2535 77307 77287 77247 77199 77149 77100 77048 76991 76924 76847 76762
928.5568 76674 76581 76483 76378 76267 76152 76036 75920 75801 75676 75546
933.8601 75408 75266 75123 74980 74841 74709 74588 74480 74388 74316 74266
939.1634 74239 74234 74242 74256 74268 74271 74262 74236 74182 74090 73954
944.4667 73774 73563 73334 73094 72845 72583 72311 72037 71773 71522 71274
949.7700 71011 70723 70420 70130 69880 69678 69505 69326 69117 68880 68643
955.0732 68435 68269 68128 67975 67776 67510 67170 66755 66262 65689 65040
960.3765 64338 63612 62896 62213 61575 60982 60432 59927 59475 59096 58824
965.6798 58702 58777 59087 59653 60480 61563 62886 64426 66145 67989 69887
970.9831 71768 73567 75234 76732 78034 79127 80011 80704 81238 81644 81944
976.2864 82149 82263 82297 82268 82199 82110 82015 81919 81823 81726 81625
981.5897 81513 81382 81228 81052 80865 80683 80513 80357 80212 80075 79954
986.8929 79858 79792 79750 79710 79647 79543 79401 79241 79090 78966 78871
992.1962 78790 78702 78594 78465 78325 78188 78066 77960 77866 77775 77675
997.4995 77556 77411 77242 77059 76878 76718 76588 76482 76382 76264 76111
1002.8028 75919 75699 75472 75256 75059 74877 74695 74498 74280 74044 73803
1008.1061 73575 73372 73209 73095 73043 73061 73160 73346 73626 74005 74476
1013.4094 75018 75591 76140 76610 76961 77178 77274 77273 77208 77105 76987
1018.7126 76868 76758 76657 76558 76449 76320 76174 76021 75881 75765 75678
1024.0160 75609 75540 75453 75338 75195 75036 74879 74739 74625 74534 74457
1029.3192 74379 74289 74179 74046 73892 73719 73530 73328 73116 72897 72669
1034.6226 72432 72184 71926 71665 71405 71147 70881 70594 70277 69938 69602
1039.9258 69310 69101 68998 68998 69082 69230 69426 69669 69961 70295 70654
1045.2291 71013 71351 71656 71935 72200 72466 72739 73016 73284 73525 73725
1050.5323 73875 73978 74042 74081 74103 74109 74095 74054 73984 73892 73789
1055.8357 73688 73597 73518 73442 73355 73246 73113 72962 72807 72659 72526
1061.1389 72406 72292 72180 72073 71977 71897 71832 71772 71709 71637 71563
1066.4423 71494 71435 71383 71329 71266 71195 71118 71042 70964 70879 70781
1071.7455 70664 70530 70384 70232 70079 69935 69807 69703 69624 69559 69493
1077.0488 69407 69287 69132 68952 68760 68573 68401 68248 68111 67983 67854
1082.3521 67717 67565 67394 67207 67004 66791 66571 66355 66150 65968 65813
1087.6554 65683 65569 65459 65341 65209 65064 64909 64744 64564 64361 64130
1092.9586 63871 63592 63307 63022 62738 62444 62123 61763 61359 60916 60444
1098.2620 59954 59450 58932 58400 57855 57303 56759 56239 55757 55327 54958
1103.5652 54666 54472 54407 54513 54827 55372 56139 57082 58115 59135 60038
1108.8685 60751 61240 61505 61574 61482 61261 60940 60549 60113 59660 59210
1114.1718 58773 58350 57937 57534 57146 56785 56476 56242 56106 56077 56147
1119.4751 56292 56480 56686 56913 57193 57581 58134 58890 59845 60957 62151
1124.7783 63342 64458 65446 66282 66964 67502 67913 68212 68413 68522 68545
1130.0817 68485 68345 68131 67854 67525 67155 66751 66317 65854 65362 64844
1135.3849 64301 63737 63155 62557 61947 61329 60703 60067 59417 58751 58075
1140.6882 57402 56753 56152 55622 55190 54890 54762 54847 55176 55758 56573
1145.9915 57574 58695 59857 60982 62004 62870 63553 64047 64368 64539 64585
1151.2948 64521 64358 64100 63755 63336 62863 62358 61839 61317 60791 60256
1156.5980 59701 59119 58509 57872 57210 56520 55798 55037 54236 53398 52534
1161.9014 51659 50786 49923 49071 48228 47393 46574 45794 45097 44546 44222
1167.2046 44215 44619 45518 46970 48994 51557 54570 57896 61360 64776 67977
1172.5079 70832 73260 75226 76736 77829 78568 79029 79296 79441 79525 79587
1177.8112 79641 79686 79704 79674 79579 79408 79159 78834 78440 77984 77476
1183.1145 76925 76342 75740 75132 74532 73950 73394 72870 72382 71934 71526
1188.4177 71155 70816 70497 70187 69875 69551 69216 68870 68520 68171 67825
1193.7211 67484 67144 66806 66468 66132 65800 65475 65159 64851 64547 64242
1199.0243 63931 63609 63278 62939 62599 62263 61933 61609 61287 60962 60632
1204.3276 60297 59964 59637 59317 59002 58689 58372 58050 57721 57388 57049
1209.6309 56702 56341 55962 55560 55136 54691 54230 53755 53273 52790 52316
1214.9342 51855 51409 50973 50536 50092 49639 49183 48738 48315 47923 47565
1220.2374 47245 46966 46734 46555 46432 46367 46363 46424 46558 46774 47076
1225.5408 47461 47920 48446 49028 49667 50365 51125 51946 52817 53725 54652
1230.8440 55589 56534 57493 58470 59462 60460 61449 62415 63352 64260 65134
1236.1473 65969 66756 67490 68170 68805 69406 69978 70517 71011 71444 71802
1241.4506 72077 72270 72388 72441 72440 72395 72312 72199 72061 71903 71736
1246.7539 71569 71412 71264 71118 70958 70771 70548 70293 70019 69736 69452
1252.0571 69162 68857 68527 68169 67785 67385 66973 66550 66111 65649 65161
1257.3605 64649 64122 63586 63044 62493 61925 61332 60712 60066 59403 58731
1262.6637 58055 57377 56700 56039 55426 54902 54503 54239 54079 53957 53799
1267.9670 53555 53236 52893 52591 52366 52218 52113 52002 51843 51610 51299
1273.2703 50917 50475 49982 49450 48896 48341 47808 47317 46889 46549 46319
1278.5736 46225 46281 46496 46864 47371 47998 48729 49548 50447 51420 52454
1283.8768 53531 54624 55704 56748 57746 58693 59593 60444 61242 61984 62672
1289.1802 63317 63931 64526 65099 65632 66099 66481 66779 67030 67302 67687
1294.4834 68280 69153 70341 71827 73545 75396 77270 79070 80728 82205 83486
1299.7867 84572 85473 86203 86776 87206 87502 87672 87720 87643 87435 87085
1305.0900 86587 85940 85152 84236 83207 82081 80878 79622 78339 77044 75739
1310.3933 74408 73028 71574 70031 68405 66723 65029 63370 61782 60283 58885
1315.6965 57600 56442 55431 54585 53923 53460 53211 53179 53356 53713 54221
1320.9999 54852 55596 56446 57396 58434 59542 60696 61878 63073 64266 65447
1326.3031 66599 67708 68760 69747 70672 71549 72397 73240 74091 74954 75826
1331.6064 76710 77607 78520 79443 80361 81258 82125 82965 83785 84583 85345
1336.9097 86048 86677 87236 87744 88224 88686 89113 89476 89759 89964 90109
1342.2130 90207 90266 90287 90269 90214 90123 90000 89845 89661 89449 89215
1347.5162 88965 88707 88444 88176 87895 87589 87243 86849 86405 85922 85412
1352.8196 84883 84334 83760 83155 82529 81899 81282 80686 80116 79581 79101
1358.1228 78702 78408 78231 78172 78221 78370 78619 78987 79495 80138 80848
1363.4261 81518 82064 82470 82766 82983 83139 83229 83235 83143 82949 82666
1368.7294 82313 81915 81486 81032 80556 80059 79546 79015 78460 77873 77251
1374.0327 76623 76046 75578 75246 75054 75015 75155 75506 76075 76822 77659
1379.3359 78487 79230 79850 80342 80718 81001 81214 81376 81496 81579 81624
1384.6393 81636 81618 81574 81495 81366 81165 80898 80597 80296 80007 79726
1389.9425 79443 79156 78870 78604 78374 78191 78063 77998 78012 78116 78301
1395.2458 78523 78738 78931 79117 79332 79626 80054 80637 81309 81958 82519
1400.5491 83007 83473 83951 84446 84940 85418 85883 86359 86865 87382 87854
1405.8524 88232 88514 88735 88931 89127 89325 89514 89676 89797 89874 89910
1411.1556 89913 89891 89854 89804 89739 89653 89543 89404 89235 89038 88822
1416.4590 88598 88383 88183 87987 87759 87448 87039 86596 86185 85821 85486
1421.7622 85154 84797 84386 83894 83323 82712 82107 81519 80926 80299 79623
1427.0656 78906 78167 77414 76624 75745 74744 73662 72598 71629 70740 69856
1432.3688 68900 67857 66787 65788 64922 64180 63513 62863 62233 61738 61491
1437.6721 61470 61605 61875 62301 62902 63677 64590 65589 66626 67675 68722
1442.9753 69760 70786 71797 72782 73721 74600 75433 76283 77247 78397 79683
1448.2787 80908 81883 82577 83070 83457 83792 84085 84311 84439 84456 84374
1453.5819 84214 83994 83723 83405 83041 82637 82221 81881 81723 81756 81893
1458.8853 82047 82170 82252 82304 82349 82411 82507 82643 82832 83102 83514
1464.1885 84125 84892 85622 86124 86375 86444 86385 86202 85869 85375 84743
1469.4918 84016 83216 82319 81265 80058 78981 78728 79707 81365 82987 84337
1474.7950 85479 86533 87567 88536 89325 89871 90223 90469 90682 90896 91119
1480.0984 91338 91533 91692 91808 91887 91937 91967 91978 91975 91960 91933
1485.4016 91896 91850 91794 91729 91660 91592 91531 91468 91389 91274 91119
1490.7050 90954 90805 90673 90548 90421 90292 90167 90050 89939 89824 89688
1496.0082 89526 89355 89199 89063 88935 88804 88668 88539 88427 88334 88254
1501.3115 88181 88108 88026 87933 87825 87704 87572 87427 87257 87032 86709
1506.6147 86335 86040 85822 85596 85322 85005 84662 84306 83935 83536 83096
1511.9181 82617 82117 81620 81131 80644 80143 79618 79056 78438 77757 77080
1517.2213 76557 76278 76224 76359 76685 77278 78343 80255 83182 86228 88270
1522.5247 89379 90050 90552 90979 91359 91704 92008 92250 92409 92485 92494
1527.8279 92457 92385 92283 92155 92010 91862 91725 91609 91519 91445 91368
1533.1312 91259 91112 90949 90796 90656 90523 90390 90257 90126 89998 89869
1538.4344 89728 89562 89392 89273 89205 89131 89015 88849 88653 88456 88273
1543.7378 88102 87929 87741 87538 87325 87108 86884 86651 86406 86157 85914
1549.0410 85687 85480 85279 85065 84836 84605 84386 84189 84030 83925 83885
1554.3444 83878 83847 83763 83636 83487 83336 83206 83156 83304 83694 83853
1559.6476 83613 83301 83036 82812 82609 82414 82222 82034 81852 81681 81516
1564.9509 81345 81159 80957 80750 80548 80353 80163 79968 79741 79464 79155
1570.2542 78859 78590 78326 78044 77727 77378 77016 76669 76358 76083 75820
1575.5575 75505 75064 74517 73969 73461 72965 72447 71887 71284 70647 69988
1580.8607 69305 68584 67805 66953 66024 65025 63972 62886 61795 60735 59751
1586.1641 58901 58258 57907 57932 58398 59330 60695 62402 64307 66241 68039
1591.4674 69580 70793 71660 72190 72408 72347 72054 71589 71018 70387 69718
1596.7706 69011 68262 67471 66646 65799 64945 64096 63268 62476 61737 61065
1602.0740 60471 59969 59578 59311 59182 59204 59400 59800 60429 61293 62370
1607.3772 63630 65066 66708 68584 70667 72842 74955 76906 78690 80360 81963
1612.6805 83489 84866 86019 86929 87640 88246 88869 89615 90436 91075 91392
1617.9838 91488 91495 91480 91466 91450 91422 91375 91306 91220 91122 91015
1623.2871 90889 90735 90555 90360 90155 89943 89720 89483 89232 88977 88732
1628.5903 88513 88319 88148 87994 87852 87717 87584 87448 87309 87168 87036
1633.8937 86929 86890 86989 87256 87567 87760 87826 87830 87816 87794 87758
1639.1969 87697 87605 87482 87333 87161 86968 86754 86523 86279 86027 85770
1644.5002 85502 85209 84876 84495 84084 83677 83277 82863 82424 81973 81522
1649.8035 81079 80641 80200 79753 79291 78755 77899 76442 75039 74106 73382
1655.1068 72697 71982 71209 70364 69452 68492 67505 66501 65487 64477 63496
1660.4100 62567 61682 60798 59837 58765 57670 56711 55964 55388 54915 54504
1665.7134 54142 53832 53578 53391 53305 53385 53696 54204 54749 55210 55613
1671.0166 56027 56458 56838 57099 57232 57293 57393 57695 58343 59249 60056
1676.3199 60566 60865 61096 61352 61694 62172 62821 63617 64448 65169 65693
1681.6232 66025 66218 66369 66715 67867 70468 73213 74542 75030 75380 75868
1686.9265 76596 77615 78942 80533 82280 84037 85684 87164 88460 89572 90502
1692.2297 91262 91872 92358 92747 93074 93395 93798 94353 94941 95335 95511
1697.5331 95570 95588 95600 95625 95686 95805 95931 95989 95996 95984 95966
1702.8363 95947 95932 95931 95957 96017 96105 96209 96305 96377 96422 96447
1708.1396 96465 96488 96523 96572 96627 96677 96713 96735 96750 96766 96794
1713.4429 96842 96909 96979 97026 97032 97004 96957 96906 96860 96831 96821
1718.7462 96822 96827 96832 96834 96832 96825 96814 96807 96811 96829 96856
1724.0494 96878 96886 96879 96863 96847 96838 96839 96844 96847 96846 96844
1729.3528 96847 96856 96865 96861 96839 96801 96759 96728 96742 96826 96932
1734.6560 96967 96934 96874 96808 96746 96689 96641 96605 96588 96588 96594
1739.9594 96586 96561 96529 96507 96505 96523 96549 96560 96539 96490 96436
1745.2626 96396 96380 96388 96419 96464 96516 96566 96609 96643 96669 96690
1750.5659 96706 96715 96713 96697 96668 96630 96586 96539 96492 96447 96407
1755.8691 96373 96344 96323 96310 96305 96304 96301 96294 96280 96257 96224
1761.1725 96181 96129 96075 96026 95989 95966 95961 95974 96003 96039 96073
1766.4757 96095 96099 96079 96037 95985 95936 95900 95881 95881 95906 95960
1771.7791 96033 96087 96096 96067 96024 95978 95931 95884 95839 95797 95757
1777.0823 95715 95668 95616 95563 95519 95492 95485 95491 95491 95475 95443
1782.3856 95407 95379 95368 95379 95409 95449 95490 95529 95568 95609 95651
1787.6888 95691 95724 95750 95770 95785 95794 95792 95774 95745 95719 95713
1792.9922 95727 95747 95765 95780 95795 95813 95829 95834 95822 95798 95771
1798.2954 95755 95760 95786 95823 95853 95862 95848 95815 95771 95724 95681
1803.5988 95647 95624 95611 95608 95616 95636 95668 95703 95728 95733 95712
1808.9020 95672 95623 95579 95546 95521 95499 95476 95460 95458 95476 95513
1814.2053 95557 95592 95610 95610 95602 95597 95600 95611 95621 95620 95609
1819.5085 95591 95571 95548 95512 95455 95376 95289 95219 95191 95222 95311
1824.8119 95426 95518 95549 95527 95484 95444 95417 95406 95405 95409 95415
1830.1151 95423 95433 95440 95438 95418 95379 95324 95266 95223 95208 95229
1835.4185 95281 95353 95434 95509 95563 95588 95579 95539 95476 95403 95332
1840.7217 95277 95244 95232 95236 95252 95282 95330 95397 95465 95516 95541
1846.0250 95537 95506 95452 95387 95326 95284 95259 95238 95202 95142 95062
1851.3282 94980 94914 94880 94880 94910 94960 95018 95074 95116 95133 95124
1856.6316 95095 95062 95041 95042 95061 95088 95109 95118 95119 95118 95119
1861.9348 95115 95096 95047 94966 94861 94748 94641 94551 94480 94430 94411
1867.2382 94444 94558 94754 94986 95162 95210 95133 94990 94845 94744 94703
1872.5414 94708 94727 94728 94693 94628 94554 94498 94473 94483 94517 94562
1877.8447 94609 94655 94692 94710 94695 94635 94532 94406 94292 94223 94219
1883.1479 94275 94367 94465 94541 94582 94588 94567 94528 94478 94425 94374
1888.4513 94334 94312 94314 94338 94375 94418 94463 94508 94552 94597 94646
1893.7545 94700 94754 94790 94776 94690 94527 94313 94087 93890 93752 93685
1899.0579 93687 93744 93841 93959 94080 94178 94224 94208 94137 94040 93955
1904.3611 93905 93897 93920 93960 94006 94049 94074 94059 93986 93849 93673
1909.6644 93499 93373 93316 93322 93369 93427 93472 93478 93420 93280 93061
1914.9677 92795 92535 92333 92229 92250 92391 92616 92865 93093 93291 93471
1920.2710 93646 93815 93969 94090 94165 94195 94195 94179 94157 94129 94099
1925.5742 94078 94082 94125 94206 94302 94383 94427 94434 94428 94442 94497
1930.8776 94586 94679 94739 94746 94705 94642 94589 94562 94561 94572 94577
1936.1808 94566 94532 94474 94402 94341 94322 94370 94483 94631 94758 94811
1941.4841 94754 94604 94425 94292 94233 94221 94215 94191 94154 94129 94144
1946.7874 94201 94273 94323 94316 94246 94136 94034 93994 94045 94174 94327
1952.0907 94437 94458 94383 94250 94111 94011 93971 93987 94038 94104 94172
1957.3939 94241 94327 94452 94630 94835 94994 95009 94822 94469 94078 93810
1962.6973 93770 93957 94276 94600 94843 94987 95062 95093 95080 95010 94897
1968.0005 94797 94774 94848 94976 95073 95058 94910 94678 94461 94338 94322
1973.3038 94352 94339 94226 94029 93829 93724 93766 93925 94104 94195 94152
1978.6071 94018 93888 93838 93881 93971 94052 94094 94106 94115 94118 94059
1983.9104 93865 93499 93024 92593 92380 92485 92876 93406 93875 94139 94175
1989.2136 94066 93925 93819 93771 93788 93888 94090 94360 94599 94685 94544
1994.5170 94192 93738 93345 93149 93200 93449 93789 94100 94291 94318 94186
1999.8202 93950 93696 93520 93485 93595 93803 94041 94268 94488 94725 94982
2005.1235 95210 95329 95276 95050 94709 94328 93958 93618 93340 93196 93275
2010.4268 93620 94155 94693 95017 95007 94716 94343 94104 94107 94298 94510
2015.7301 94567 94397 94066 93738 93558 93563 93686 93816 93880 93884 93895
2021.0333 93984 94172 94404 94572 94575 94381 94053 93716 93494 93445 93539
2026.3367 93682 93772 93755 93642 93485 93329 93184 93052 92956 92968 93175
2031.6399 93621 94253 94928 95474 95772 95800 95614 95298 94922 94534 94180
2036.9432 93895 93686 93517 93328 93084 92824 92657 92698 92990 93455 93930
2042.2465 94244 94308 94144 93867 93628 93556 93703 94017 94358 94547 94458
2047.5498 94084 93546 93029 92673 92510 92476 92491 92525 92609 92785 93054
2052.8530 93349 93570 93642 93567 93424 93317 93311 93399 93515 93579 93543
2058.1563 93413 93239 93084 92981 92925 92881 92813 92717 92625 92579 92613
2063.4597 92728 92902 93104 93306 93489 93635 93720 93732 93679 93603 93553
2068.7629 93560 93606 93634 93578 93414 93175 92935 92768 92705 92730 92794
2074.0662 92861 92923 92997 93096 93211 93312 93369 93374 93345 93308 93273
2079.3694 93228 93155 93050 92937 92852 92825 92854 92912 92957 92961 92917
2084.6729 92837 92746 92672 92641 92674 92774 92920 93060 93138 93119 93015
2089.9761 92884 92801 92818 92929 93080 93194 93211 93114 92935 92730 92552
2095.2793 92438 92400 92435 92535 92684 92860 93032 93176 93274 93322 93323
2100.5825 93285 93214 93116 93003 92888 92774 92657 92525 92378 92232 92128
2105.8860 92108 92192 92362 92565 92741 92844 92867 92839 92802 92793 92823
2111.1892 92882 92951 93009 93045 93052 93030 92981 92911 92827 92739 92653
2116.4924 92572 92503 92457 92453 92505 92615 92763 92915 93042 93130 93191
2121.7957 93248 93320 93404 93472 93487 93424 93284 93100 92923 92798 92749
2127.0991 92764 92809 92843 92842 92807 92761 92727 92720 92738 92775 92835
2132.4023 92929 93065 93227 93363 93403 93291 93027 92681 92371 92205 92235
2137.7056 92422 92660 92826 92848 92752 92642 92634 92784 93054 93338 93529
2143.0088 93580 93514 93395 93271 93153 93034 92924 92860 92879 92977 93094
2148.3123 93152 93122 93058 93080 93307 93782 94447 95163 95777 96173 96310
2153.6155 96212 95947 95600 95247 94947 94717 94540 94377 94209 94067 94030
2158.9187 94174 94498 94893 95195 95285 95142 94846 94526 94303 94247 94365
2164.2219 94606 94877 95068 95094 94925 94599 94206 93844 93581 93427 93347
2169.5254 93284 93199 93093 93011 93016 93162 93464 93892 94374 94815 95115
2174.8286 95192 95009 94588 94006 93374 92798 92344 92024 91817 91714 91736
2180.1318 91928 92307 92818 93326 93683 93812 93751 93626 93554 93577 93648
2185.4351 93685 93636 93519 93403 93358 93424 93593 93829 94075 94273 94367
2190.7385 94332 94186 93998 93856 93821 93890 93995 94047 93996 93867 93738
2196.0417 93680 93712 93786 93825 93782 93669 93546 93473 93470 93505 93522
2201.3450 93486 93405 93319 93271 93278 93326 93394 93471 93559 93659 93752
2206.6482 93803 93779 93680 93540 93417 93351 93342 93356 93350 93304 93230
2211.9517 93155 93090 93024 92933 92816 92706 92660 92719 92879 93077 93227
2217.2549 93262 93173 93010 92854 92777 92809 92935 93108 93270 93371 93389
2222.5581 93326 93206 93061 92923 92819 92760 92742 92749 92751 92724 92654
2227.8613 92556 92462 92416 92445 92544 92676 92784 92817 92756 92626 92486
2233.1648 92404 92426 92553 92739 92913 93014 93014 92932 92811 92690 92585
2238.4680 92488 92386 92285 92207 92180 92215 92291 92369 92409 92401 92364
2243.7712 92331 92323 92331 92325 92274 92178 92071 92005 92013 92087 92183
2249.0745 92244 92244 92204 92176 92207 92304 92427 92515 92522 92442 92311
2254.3779 92175 92066 91986 91921 91862 91813 91793 91817 91884 91972 92058
2259.6812 92125 92176 92222 92272 92320 92344 92321 92240 92118 91988 91889
2264.9844 91846 91859 91909 91974 92038 92099 92163 92226 92275 92288 92249
2270.2876 92159 92044 91938 91871 91851 91867 91890 91898 91883 91852 91821
2275.5911 91803 91800 91808 91818 91824 91827 91829 91825 91812 91784 91743
2280.8943 91699 91667 91656 91668 91694 91721 91736 91731 91706 91667 91627
2286.1975 91602 91605 91633 91670 91686 91655 91575 91471 91388 91367 91420
2291.5007 91524 91637 91723 91769 91785 91794 91812 91839 91865 91879 91877
2296.8042 91863 91840 91813 91784 91757 91734 91717 91703 91692 91682 91675
2302.1074 91676 91688 91710 91734 91751 91754 91734 91693 91639 91592 91576
2307.4106 91609 91688 91789 91876 91917 91909 91879 91868 91906 91993 92095
2312.7139 92165 92170 92112 92021 91941 91900 91903 91935 91974 92009 92044
2318.0173 92091 92154 92226 92287 92323 92334 92334 92340 92353 92359 92338
2323.3206 92280 92196 92114 92065 92068 92123 92216 92323 92416 92471 92479
2328.6238 92448 92409 92395 92427 92501 92590 92659 92687 92677 92650 92625
2333.9270 92612 92604 92588 92554 92496 92418 92327 92235 92164 92139 92187
2339.2305 92318 92516 92730 92898 92974 92951 92854 92719 92573 92424 92272
2344.5337 92125 92005 91936 91924 91941 91944 91901 91806 91678 91543 91432
2349.8369 91368 91363 91409 91478 91544 91604 91680 91797 91955 92112 92202
2355.1401 92168 92002 91758 91535 91432 91505 91742 92084 92446 92749 92944
2360.4436 93016 92992 92924 92873 92877 92928 92970 92927 92750 92460 92135
2365.7468 91873 91738 91733 91811 91910 91986 92023 92024 91991 91928 91839
2371.0500 91747 91682 91671 91714 91785 91839 91841 91785 91692 91600 91537
2376.3533 91508 91494 91469 91416 91336 91242 91153 91083 91040 91024 91032
2381.6567 91054 91076 91084 91065 91019 90957 90896 90852 90831 90829 90836
2386.9600 90845 90853 90860 90867 90870 90862 90839 90801 90757 90720 90696
2392.2632 90687 90685 90685 90682 90676 90671 90669 90672 90676 90678 90675
2397.5664 90664 90645 90619 90591 90565 90548 90544 90552 90567 90580 90583
2402.8699 90572 90549 90523 90505 90503 90520 90549 90580 90600 90600 90578
2408.1731 90537 90487 90441 90410 90400 90410 90432 90454 90470 90484 90500
2413.4763 90523 90551 90574 90579 90561 90527 90496 90483 90497 90529 90562
2418.7795 90576 90559 90514 90455 90404 90386 90411 90478 90565 90643 90687
2424.0830 90689 90657 90612 90572 90542 90516 90488 90456 90431 90426 90449
2429.3862 90492 90542 90583 90609 90622 90630 90639 90647 90655 90658 90658
2434.6895 90654 90646 90630 90610 90589 90573 90565 90560 90548 90524 90486
2439.9927 90444 90407 90381 90365 90352 90336 90320 90309 90311 90322 90334
2445.2961 90334 90315 90280 90239 90203 90176 90158 90144 90131 90119 90114
2450.5994 90121 90142 90174 90210 90242 90260 90258 90234 90192 90141 90097
2455.9026 90076 90086 90121 90168 90208 90231 90236 90233 90235 90249 90271
2461.2058 90293 90310 90321 90331 90348 90375 90410 90444 90464 90463 90439
2466.5093 90397 90353 90324 90320 90343 90383 90424 90458 90483 90506 90535
2471.8125 90569 90600 90620 90628 90629 90634 90644 90654 90651 90630 90598
2477.1157 90571 90561 90567 90574 90567 90538 90495 90459 90441 90443 90450
2482.4189 90445 90422 90387 90359 90352 90373 90417 90471 90524 90567 90592
2487.7224 90595 90576 90538 90493 90454 90431 90428 90437 90449 90455 90453
2493.0256 90446 90438 90430 90421 90405 90374 90327 90262 90189 90120 90067
2498.3289 90040 90037 90052 90076 90101 90125 90144 90155 90154 90139 90115
2503.6321 90092 90078 90074 90067 90044 89995 89928 89862 89815 89799 89807
2508.9355 89821 89824 89813 89801 89808 89852 89932 90026 90105 90146 90144
2514.2388 90115 90092 90101 90151 90228 90305 90350 90346 90293 90207 90115
2519.5420 90041 90006 90017 90070 90148 90229 90289 90314 90300 90260 90214
2524.8452 90182 90172 90184 90212 90249 90293 90342 90391 90434 90463 90476
2530.1487 90479 90480 90488 90498 90502 90486 90443 90375 90294 90214 90152
2535.4519 90116 90112 90135 90173 90211 90239 90253 90260 90269 90281 90288
2540.7551 90275 90232 90159 90076 90004 89963 89956 89973 89998 90014 90016
2546.0583 90003 89980 89950 89916 89884 89860 89851 89859 89879 89899 89905
2551.3618 89888 89849 89798 89752 89726 89726 89751 89790 89829 89858 89872
2556.6650 89873 89865 89852 89841 89835 89839 89856 89887 89927 89961 89976
2561.9683 89964 89926 89876 89830 89797 89774 89754 89729 89702 89685 89694
2567.2715 89733 89798 89869 89928 89962 89969 89958 89940 89927 89928 89949
2572.5750 89986 90029 90060 90062 90029 89965 89889 89822 89778 89761 89765
2577.8782 89780 89796 89804 89799 89783 89757 89732 89717 89717 89728 89744
2583.1814 89755 89762 89774 89801 89849 89911 89969 90005 90009 89986 89955
2588.4849 89934 89935 89953 89974 89981 89963 89925 89881 89846 89829 89830
2593.7881 89841 89853 89865 89880 89903 89933 89965 89989 89994 89974 89930
2599.0913 89872 89814 89766 89736 89722 89720 89724 89732 89742 89755 89769
2604.3945 89781 89791 89801 89819 89847 89885 89924 89954 89966 89959 89937
2609.6980 89908 89879 89858 89847 89852 89870 89900 89930 89951 89955 89941
2615.0012 89918 89896 89885 89889 89903 89917 89922 89914 89900 89886 89880
2620.3044 89883 89896 89916 89944 89977 90011 90038 90049 90040 90015 89984
2625.6077 89959 89946 89944 89951 89961 89971 89980 89984 89982 89973 89960
2630.9111 89950 89943 89940 89936 89929 89923 89924 89937 89956 89969 89964
2636.2144 89938 89898 89859 89835 89831 89841 89856 89864 89863 89853 89838
2641.5176 89823 89813 89810 89816 89829 89842 89847 89840 89820 89791 89763
2646.8208 89745 89743 89755 89774 89789 89786 89762 89718 89668 89626 89603
2652.1243 89601 89607 89609 89592 89557 89509 89463 89427 89408 89403 89405
2657.4275 89406 89402 89388 89365 89336 89305 89275 89252 89235 89221 89207
2662.7307 89190 89169 89146 89127 89113 89110 89115 89125 89135 89139 89136
2668.0339 89130 89126 89132 89150 89177 89206 89230 89248 89264 89282 89302
2673.3374 89320 89328 89323 89308 89294 89292 89308 89336 89367 89390 89399
2678.6406 89399 89400 89411 89435 89467 89499 89522 89534 89538 89538 89539
2683.9438 89541 89540 89536 89530 89526 89526 89529 89532 89529 89519 89505
2689.2471 89491 89481 89476 89476 89482 89492 89504 89511 89509 89495 89471
2694.5505 89445 89428 89423 89426 89427 89418 89397 89369 89341 89320 89307
2699.8538 89297 89284 89269 89252 89237 89225 89211 89194 89171 89147 89133
2705.1570 89135 89157 89191 89226 89252 89262 89255 89236 89211 89188 89171
2710.4602 89163 89163 89165 89164 89156 89142 89129 89122 89124 89131 89138
2715.7637 89138 89129 89115 89100 89089 89084 89086 89092 89102 89110 89115
2721.0669 89118 89121 89128 89142 89155 89161 89151 89125 89091 89063 89050
2726.3701 89055 89071 89090 89105 89116 89124 89132 89136 89137 89133 89127
2731.6733 89121 89118 89118 89119 89123 89133 89152 89180 89215 89248 89270
2736.9768 89277 89271 89257 89240 89226 89214 89205 89198 89195 89196 89203
2742.2800 89213 89221 89223 89218 89207 89193 89180 89172 89172 89185 89214
2747.5833 89254 89297 89328 89333 89309 89265 89219 89189 89181 89193 89211
2752.8865 89223 89224 89218 89214 89217 89228 89238 89240 89229 89209 89188
2758.1899 89178 89184 89202 89222 89234 89229 89208 89181 89157 89144 89145
2763.4932 89156 89168 89172 89166 89150 89133 89122 89124 89141 89166 89187
2768.7964 89192 89176 89139 89087 89029 88973 88923 88882 88851 88833 88828
2774.0996 88836 88854 88874 88889 88890 88880 88864 88854 88858 88880 88911
2779.4031 88938 88946 88930 88893 88847 88803 88770 88748 88734 88722 88706
2784.7063 88689 88671 88656 88641 88621 88591 88551 88508 88472 88452 88450
2790.0095 88458 88464 88456 88432 88395 88355 88318 88287 88261 88239 88222
2795.3127 88213 88215 88223 88234 88241 88241 88237 88234 88235 88242 88253
2800.6162 88265 88278 88294 88314 88337 88359 88373 88380 88381 88385 88396
2805.9194 88415 88438 88455 88460 88450 88433 88417 88408 88408 88411 88411
2811.2227 88401 88382 88362 88351 88355 88376 88406 88438 88465 88487 88505
2816.5259 88519 88527 88522 88501 88465 88424 88390 88371 88371 88385 88405
2821.8293 88424 88435 88439 88435 88426 88414 88401 88387 88373 88360 88350
2827.1326 88345 88347 88354 88359 88357 88346 88329 88315 88312 88323 88348
2832.4358 88375 88396 88401 88391 88367 88337 88308 88287 88276 88274 88277
2837.7390 88284 88291 88297 88305 88316 88335 88363 88397 88432 88457 88463
2843.0425 88449 88419 88387 88365 88359 88366 88374 88368 88345 88308 88268
2848.3457 88240 88230 88237 88252 88263 88261 88243 88213 88182 88158 88147
2853.6489 88147 88151 88151 88141 88126 88111 88103 88103 88104 88099 88078
2858.9521 88042 87997 87952 87915 87889 87871 87852 87827 87793 87751 87708
2864.2556 87669 87635 87602 87564 87517 87464 87411 87364 87324 87288 87247
2869.5588 87192 87119 87028 86923 86810 86694 86581 86477 86381 86292 86202
2874.8621 86105 85996 85874 85752 85644 85565 85524 85514 85520 85524 85514
2880.1653 85490 85465 85452 85456 85472 85487 85495 85497 85505 85532 85584
2885.4688 85652 85723 85783 85825 85851 85869 85885 85900 85908 85899 85864
2890.7720 85798 85700 85575 85437 85302 85193 85126 85112 85153 85241 85366
2896.0752 85515 85678 85845 86006 86156 86296 86428 86557 86685 86811 86931
2901.3784 87042 87138 87217 87275 87314 87341 87370 87415 87484 87575 87673
2906.6819 87764 87834 87880 87905 87911 87901 87877 87844 87809 87781 87763
2911.9851 87751 87738 87718 87690 87659 87629 87609 87600 87604 87619 87637
2917.2883 87649 87647 87625 87587 87541 87497 87460 87428 87391 87344 87281
2922.5916 87211 87144 87093 87068 87068 87081 87092 87087 87057 87000 86925
2927.8950 86841 86756 86675 86598 86523 86453 86388 86332 86282 86234 86179
2933.1982 86108 86015 85903 85778 85652 85536 85437 85353 85278 85202 85116
2938.5015 85018 84912 84808 84713 84635 84575 84527 84487 84451 84423 84407
2943.8047 84412 84443 84497 84569 84647 84718 84772 84803 84811 84799 84774
2949.1082 84743 84709 84671 84628 84577 84525 84484 84465 84478 84522 84589
2954.4114 84664 84736 84798 84849 84890 84923 84947 84962 84965 84955 84932
2959.7146 84896 84850 84800 84750 84706 84670 84641 84619 84606 84611 84642
2965.0178 84700 84780 84865 84939 84993 85025 85040 85039 85021 84976 84899
2970.3213 84790 84655 84502 84336 84157 83960 83738 83489 83212 82911 82592
2975.6245 82265 81939 81622 81320 81039 80784 80566 80401 80304 80283 80334
2980.9277 80442 80588 80758 80953 81182 81457 81783 82150 82541 82932 83306
2986.2310 83654 83978 84285 84586 84890 85203 85523 85842 86148 86431 86686
2991.5344 86919 87137 87347 87551 87747 87931 88099 88249 88379 88483 88557
2996.8376 88601 88622 88634 88651 88678 88713 88751 88782 88807 88827 88848
3002.1409 88872 88902 88938 88975 89005 89019 89008 88972 88919 88868 88836
3007.4441 88835 88859 88895 88924 88934 88922 88893 88853 88805 88751 88692
3012.7476 88631 88576 88532 88500 88478 88464 88457 88453 88451 88444 88426
3018.0508 88397 88358 88314 88266 88209 88139 88053 87957 87864 87788 87740
3023.3540 87720 87722 87733 87743 87745 87738 87725 87713 87707 87708 87712
3028.6572 87712 87700 87680 87661 87654 87663 87680 87690 87684 87664 87641
3033.9607 87631 87642 87672 87711 87745 87769 87781 87783 87776 87760 87738
3039.2639 87714 87694 87682 87677 87673 87662 87642 87615 87589 87571 87564
3044.5671 87565 87568 87566 87557 87546 87539 87537 87538 87535 87522 87501
3049.8704 87482 87475 87483 87500 87509 87495 87457 87403 87350 87312 87289
3055.1738 87274 87257 87231 87199 87170 87147 87129 87110 87085 87052 87019
3060.4771 86992 86976 86970 86966 86960 86948 86931 86910 86888 86866 86846
3065.7803 86827 86811 86799 86791 86786 86782 86780 86784 86796 86812 86825
3071.0835 86821 86793 86741 86680 86625 86594 86592 86612 86637 86650 86634
3076.3870 86587 86517 86437 86366 86316 86290 86285 86292 86299 86301 86294
3081.6902 86281 86264 86246 86232 86221 86216 86215 86219 86223 86224 86216
3086.9934 86196 86163 86122 86084 86056 86044 86045 86051 86055 86053 86047
3092.2966 86044 86045 86047 86043 86026 85993 85948 85897 85845 85797 85756
3097.6001 85723 85700 85686 85680 85676 85671 85660 85642 85620 85598 85578
3102.9033 85556 85528 85487 85433 85371 85308 85251 85201 85157 85118 85086
3108.2065 85069 85071 85088 85113 85131 85134 85122 85098 85069 85038 85003
3113.5098 84967 84932 84907 84895 84893 84888 84866 84820 84756 84691 84642
3118.8132 84623 84632 84658 84684 84699 84698 84679 84644 84599 84546 84493
3124.1165 84445 84412 84399 84406 84423 84437 84432 84400 84341 84271 84206
3129.4197 84164 84148 84153 84163 84166 84152 84122 84082 84038 83995 83954
3134.7229 83916 83886 83867 83863 83869 83877 83874 83850 83805 83750 83700
3140.0264 83670 83663 83668 83669 83649 83601 83532 83457 83396 83359 83345
3145.3296 83346 83347 83337 83315 83288 83263 83245 83230 83205 83160 83093
3150.6328 83009 82924 82852 82799 82764 82738 82717 82697 82681 82673 82672
3155.9360 82670 82654 82611 82533 82425 82307 82201 82128 82094 82089 82097
3161.2395 82097 82080 82041 81987 81921 81850 81781 81721 81676 81645 81621
3166.5427 81589 81536 81462 81375 81293 81232 81199 81189 81191 81193 81184
3171.8459 81162 81127 81082 81030 80978 80933 80903 80893 80905 80934 80968
3177.1492 80997 81009 81001 80974 80930 80874 80806 80727 80637 80541 80447
3182.4526 80363 80295 80244 80206 80177 80155 80137 80117 80089 80046 79982
3187.7559 79902 79816 79738 79678 79635 79603 79570 79532 79498 79481 79495
3193.0591 79544 79614 79683 79727 79737 79718 79688 79665 79659 79672 79697
3198.3623 79726 79753 79768 79759 79718 79645 79554 79467 79406 79376 79364
3203.6658 79350 79316 79259 79187 79113 79042 78968 78885 78790 78693 78609
3208.9690 78550 78517 78497 78471 78423 78349 78254 78152 78055 77973 77910
3214.2722 77866 77833 77805 77773 77728 77665 77585 77493 77399 77311 77236
3219.5754 77170 77108 77042 76970 76893 76819 76759 76717 76694 76679 76660
3224.8789 76627 76573 76505 76432 76365 76311 76266 76224 76173 76109 76033
3230.1821 75955 75889 75843 75818 75802 75780 75740 75677 75603 75532 75479
3235.4854 75445 75422 75399 75365 75324 75282 75251 75236 75230 75222 75192
3240.7886 75129 75030 74907 74783 74687 74640 74647 74696 74759 74811 74836
3246.0920 74836 74825 74813 74803 74788 74759 74711 74651 74589 74537 74497
3251.3953 74466 74438 74409 74384 74372 74378 74402 74435 74470 74499 74522
3256.6985 74541 74558 74571 74581 74587 74596 74612 74637 74668 74700 74732
3262.0017 74764 74799 74833 74857 74860 74840 74806 74778 74772 74799 74855
3267.3052 74928 75009 75093 75178 75264 75346 75418 75479 75531 75582 75638
3272.6084 75701 75766 75827 75879 75924 75972 76033 76114 76216 76331 76449
3277.9116 76560 76660 76749 76833 76914 76997 77082 77171 77265 77365 77472
3283.2148 77580 77682 77771 77842 77899 77954 78018 78097 78187 78274 78346
3288.5183 78402 78451 78511 78598 78710 78837 78964 79084 79200 79316 79433
3293.8215 79541 79629 79694 79743 79795 79865 79956 80059 80158 80244 80316
3299.1248 80381 80442 80502 80559 80614 80678 80758 80860 80976 81094 81201
3304.4280 81292 81367 81432 81489 81536 81574 81607 81643 81691 81753 81825
3309.7314 81899 81969 82032 82092 82152 82210 82264 82311 82353 82396 82442
3315.0347 82495 82552 82609 82659 82700 82733 82762 82792 82828 82870 82912
3320.3379 82945 82966 82978 82993 83028 83090 83176 83272 83362 83431 83476
3325.6411 83504 83524 83547 83584 83640 83715 83803 83893 83973 84036 84081
3330.9446 84112 84136 84164 84201 84256 84328 84415 84507 84592 84660 84709
3336.2478 84742 84766 84787 84808 84835 84871 84922 84991 85072 85158 85237
3341.5510 85301 85346 85371 85381 85380 85376 85380 85405 85463 85557 85683
3346.8542 85826 85965 86079 86156 86195 86206 86204 86201 86207 86223 86249
3352.1577 86286 86337 86405 86493 86596 86707 86814 86907 86976 87021 87047
3357.4609 87064 87084 87114 87160 87219 87289 87364 87440 87511 87569 87611
3362.7642 87637 87658 87687 87734 87802 87881 87957 88020 88071 88119 88174
3368.0674 88243 88323 88404 88475 88534 88582 88624 88664 88702 88736 88766
3373.3708 88797 88836 88891 88962 89045 89129 89203 89260 89297 89317 89325
3378.6741 89330 89338 89357 89392 89446 89518 89603 89690 89767 89822 89848
3383.9773 89851 89842 89838 89853 89889 89937 89985 90023 90048 90063 90074
3389.2805 90086 90105 90133 90175 90232 90302 90374 90435 90474 90487 90483
3394.5840 90474 90474 90494 90537 90594 90655 90709 90749 90779 90806 90833
3399.8872 90859 90880 90888 90882 90867 90854 90851 90866 90898 90946 91008
3405.1904 91082 91165 91249 91327 91388 91425 91436 91423 91393 91360 91338
3410.4937 91344 91382 91446 91517 91572 91598 91598 91585 91579 91585 91599
3415.7971 91607 91601 91586 91580 91603 91665 91763 91879 91990 92078 92136
3421.1003 92168 92180 92181 92174 92163 92150 92141 92143 92159 92190 92229
3426.4036 92268 92299 92320 92337 92355 92377 92400 92413 92409 92390 92369
3431.7068 92364 92387 92439 92508 92576 92632 92675 92711 92748 92787 92821
3437.0103 92844 92853 92850 92842 92834 92829 92825 92821 92821 92831 92850
3442.3135 92873 92889 92889 92872 92850 92837 92848 92886 92942 92997 93032
3447.6167 93043 93038 93033 93044 93078 93133 93192 93238 93255 93245 93222
3452.9199 93206 93211 93236 93264 93277 93267 93240 93210 93195 93200 93220
3458.2234 93246 93267 93280 93286 93292 93307 93336 93381 93433 93475 93489
3463.5266 93468 93421 93372 93345 93355 93399 93460 93515 93548 93556 93544
3468.8298 93520 93493 93466 93443 93426 93420 93424 93439 93463 93493 93525
3474.1331 93552 93568 93570 93560 93548 93542 93547 93560 93573 93575 93564
3479.4365 93543 93522 93513 93522 93549 93593 93645 93697 93738 93758 93751
3484.7397 93721 93675 93627 93588 93561 93544 93536 93537 93551 93578 93612
3490.0430 93637 93639 93612 93562 93511 93483 93493 93538 93602 93657 93685
3495.3462 93679 93647 93605 93563 93523 93484 93447 93419 93407 93417 93444
3500.6497 93474 93498 93511 93517 93526 93545 93573 93607 93642 93672 93693
3505.9529 93700 93689 93660 93618 93570 93530 93508 93510 93537 93579 93625
3511.2561 93661 93675 93662 93626 93578 93533 93502 93486 93478 93469 93452
3516.5593 93425 93395 93373 93370 93387 93416 93437 93438 93416 93380 93349
3521.8628 93340 93357 93391 93425 93448 93455 93452 93440 93420 93395 93375
3527.1660 93372 93390 93418 93437 93430 93398 93356 93327 93324 93344 93373
3532.4692 93396 93405 93403 93399 93401 93412 93431 93449 93457 93449 93425
3537.7725 93391 93357 93331 93315 93301 93278 93240 93193 93155 93150 93194
3543.0759 93284 93402 93513 93589 93614 93593 93541 93475 93406 93336 93264
3548.3792 93190 93119 93059 93020 93014 93044 93106 93180 93245 93284 93297
3553.6824 93291 93273 93251 93227 93208 93199 93204 93222 93244 93261 93269
3558.9856 93267 93261 93253 93245 93235 93223 93212 93207 93214 93229 93249
3564.2891 93271 93291 93312 93333 93346 93337 93298 93240 93180 93135 93112
3569.5923 93110 93125 93150 93177 93199 93214 93224 93236 93253 93276 93294
3574.8955 93293 93263 93205 93131 93063 93020 93011 93035 93079 93127 93168
3580.1990 93197 93215 93230 93244 93255 93254 93231 93185 93125 93069 93040
3585.5022 93055 93123 93230 93337 93401 93402 93352 93278 93202 93139 93098
3590.8054 93082 93093 93124 93156 93171 93153 93105 93040 92978 92936 92922
3596.1086 92933 92965 93011 93061 93108 93141 93159 93162 93160 93157 93159
3601.4121 93162 93163 93156 93137 93105 93061 93012 92966 92932 92917 92920
3606.7153 92936 92954 92964 92960 92936 92890 92829 92765 92711 92684 92693
3612.0186 92747 92836 92936 93017 93065 93081 93076 93065 93066 93096 93171
3617.3218 93285 93405 93465 93406 93227 92997 92800 92682 92643 92657 92697
3622.6252 92747 92806 92879 92967 93061 93138 93173 93149 93065 92936 92800
3627.9285 92730 92824 93089 93347 93454 93421 93313 93176 93045 92946 92896
3633.2317 92893 92906 92898 92853 92782 92707 92650 92623 92627 92651 92678
3638.5349 92696 92704 92712 92731 92765 92811 92857 92885 92883 92848 92788
3643.8384 92716 92646 92588 92554 92552 92582 92625 92650 92640 92616 92618
3649.1416 92684 92820 92981 93096 93140 93130 93091 93038 92975 92905 92838
3654.4448 92789 92777 92817 92889 92942 92939 92886 92809 92732 92673 92639
3659.7480 92631 92640 92652 92655 92643 92615 92582 92556 92552 92572 92606
3665.0515 92634 92634 92601 92546 92498 92492 92560 92710 92910 93078 93119
3670.3547 93011 92830 92655 92514 92395 92287 92188 92122 92167 92441 92910
3675.6580 93235 93267 93148 93008 92908 92872 92900 92964 93012 93001 92922
3680.9612 92801 92672 92565 92497 92469 92469 92477 92472 92443 92396 92346
3686.2646 92314 92326 92412 92585 92811 93019 93170 93271 93327 93324 93241
3691.5679 93091 92918 92765 92649 92572 92522 92490 92466 92453 92455 92474
3696.8711 92502 92524 92525 92503 92467 92440 92445 92496 92591 92695 92755
3702.1743 92749 92702 92658 92644 92660 92691 92710 92693 92639 92566 92495
3707.4778 92445 92428 92450 92512 92612 92744 92904 93070 93186 93179 93036
3712.7810 92829 92641 92509 92437 92411 92410 92413 92407 92398 92399 92422
3718.0842 92463 92504 92520 92509 92483 92467 92475 92501 92520 92504 92453
3723.3875 92395 92364 92379 92446 92549 92656 92730 92753 92729 92673 92596
3728.6909 92507 92422 92360 92344 92390 92489 92595 92652 92648 92626 92639
3733.9941 92725 92876 93010 93019 92885 92689 92513 92384 92302 92250 92220
3739.2974 92209 92221 92253 92290 92313 92309 92283 92257 92270 92384 92614
3744.6006 92802 92810 92704 92575 92460 92371 92310 92279 92274 92286 92301
3749.9041 92323 92375 92482 92645 92803 92862 92793 92651 92497 92371 92300
3755.2073 92295 92350 92426 92471 92462 92412 92358 92338 92371 92439 92501
3760.5105 92531 92535 92529 92522 92510 92490 92456 92416 92381 92364 92368
3765.8137 92379 92380 92369 92352 92345 92363 92416 92494 92557 92566 92517
3771.1172 92437 92355 92289 92241 92206 92176 92145 92120 92114 92135 92179
3776.4204 92232 92276 92305 92325 92353 92400 92460 92508 92527 92519 92496
3781.7236 92466 92435 92402 92367 92331 92302 92282 92271 92262 92250 92240
3787.0269 92239 92256 92294 92346 92395 92426 92428 92404 92363 92316 92266
3792.3303 92213 92156 92100 92055 92039 92069 92153 92279 92403 92467 92444
3797.6335 92357 92241 92124 92024 91958 91952 92047 92251 92478 92615 92637
3802.9368 92583 92491 92385 92279 92188 92129 92121 92164 92219 92235 92205
3808.2400 92158 92118 92097 92097 92113 92141 92174 92206 92223 92208 92150
3813.5435 92050 91931 91839 91851 92030 92313 92521 92557 92455 92279 92081
3818.8467 91900 91785 91799 91990 92286 92484 92495 92391 92265 92164 92103
3824.1499 92079 92082 92100 92121 92137 92146 92145 92130 92093 92031 91948
3829.4531 91858 91788 91774 91837 91952 92058 92114 92125 92126 92144 92184
3834.7566 92220 92218 92172 92116 92103 92176 92317 92443 92473 92403 92280
3840.0598 92160 92077 92039 92034 92052 92088 92136 92182 92204 92189 92146
3845.3630 92091 92040 92000 91972 91957 91951 91955 91963 91972 91973 91955
3850.6663 91904 91809 91664 91496 91398 91505 91807 92088 92225 92245 92213
3855.9697 92179 92171 92193 92223 92234 92212 92163 92110 92073 92066 92087
3861.2729 92109 92102 92053 91977 91910 91894 91956 92080 92189 92218 92164
3866.5762 92057 91927 91796 91684 91629 91686 91871 92084 92200 92201 92138
3871.8794 92059 92000 91993 92049 92140 92201 92194 92137 92065 92004 91962
3877.1829 91933 91913 91900 91907 91947 92021 92096 92125 92099 92050 92009
3882.4861 91992 91999 92027 92073 92136 92212 92276 92292 92246 92161 92063
3887.7893 91972 91899 91850 91830 91850 91916 92020 92121 92166 92137 92055
3893.0925 91957 91875 91828 91821 91843 91872 91891 91898 91901 91917 91963
3898.3960 92035 92105 92138 92122 92071 92008 91946 91890 91833 91773 91721
3903.6992 91702 91734 91815 91914 91991 92026 92017 91978 91925 91873 91833
3909.0024 91808 91799 91800 91808 91822 91844 91874 91908 91937 91950 91945
3914.3057 91924 91898 91875 91858 91835 91794 91732 91668 91625 91623 91674
3919.6091 91765 91865 91935 91955 91933 91890 91848 91828 91836 91867 91894
3924.9124 91891 91848 91776 91701 91650 91645 91696 91789 91894 91968 91991
3930.2156 91970 91936 91922 91944 91986 92018 92015 91978 91930 91891 91873
3935.5188 91870 91870 91860 91839 91813 91791 91774 91754 91726 91690 91661
3940.8223 91657 91695 91773 91867 91936 91952 91919 91863 91812 91783 91784
3946.1255 91807 91841 91872 91896 91913 91929 91942 91946 91931 91897 91853
3951.4287 91814 91795 91804 91835 91870 91888 91874 91829 91767 91711 91677
3956.7319 91676 91700 91736 91767 91782 91778 91760 91735 91716 91709 91716
3962.0354 91728 91733 91719 91686 91640 91594 91559 91537 91526 91525 91536
3967.3386 91565 91615 91684 91757 91813 91840 91839 91824 91812 91815 91834
3972.6418 91858 91875 91877 91869 91856 91842 91822 91788 91740 91685 91639
3977.9451 91615 91616 91630 91637 91629 91610 91595 91600 91626 91659 91682
3983.2485 91684 91670 91654 91650 91667 91701 91743 91786 91824 91853 91867
3988.5518 91863 91838 91793 91734 91671 91611 91563 91540 91553 91607 91694
3993.8550 91790 91864 91889 91860 91797 91729 91680 91658 91655 91652 91637
3999.1582 91607 91572 91548
##END= 
