##TITLE= INCBENZOCAINA
##JCAMP-DX= 4.24
##DATA TYPE= INFRARED SPECTRUM
##ORIGIN= JASCO
##OWNER= 
##DATE= 22/04/13
##TIME= 14:42:45
##SPECTROMETER/DATA SYSTEM= 
##RESOLUTION= 
##DELTAX=   0.48211674
##XUNITS= 1/CM
##YUNITS= TRANSMITTANCE
##XFACTOR= 1.00000
##YFACTOR= 1E-005
##FIRSTX=   599.7532
##LASTX=  4000.1226
##NPOINTS=     7054
##FIRSTY=      0.62639
##MAXY=      0.97778
##MINY=      0.41774
##XYDATA= (X++(Y..Y))
599.7532 62639 62634 62629 62666 62753 62849 62886 62809 62605 62314 62014
605.0565 61785 61673 61685 61795 61971 62197 62475 62810 63179 63528 63784
610.3598 63896 63871 63772 63688 63681 63762 63894 64030 64141 64232 64328
615.6631 64452 64616 64824 65084 65419 65863 66448 67194 68111 69195 70419
620.9664 71733 73057 74293 75347 76144 76635 76808 76683 76312 75773 75154
626.2697 74540 74002 73587 73307 73133 72995 72797 72461 71963 71351 70728
631.5729 70208 69872 69736 69750 69823 69850 69754 69505 69128 68672 68176
636.8762 67632 66994 66221 65345 64505 63926 63842 64385 65525 67070 68748
642.1795 70296 71534 72392 72891 73116 73179 73195 73258 73423 73696 74037
647.4828 74367 74592 74635 74476 74177 73864 73680 73718 73983 74377 74733
652.7861 74889 74765 74402 73948 73585 73448 73572 73891 74281 74624 74846
658.0894 74924 74875 74735 74554 74388 74296 74317 74446 74627 74767 74789
663.3926 74675 74484 74313 74222 74198 74158 73982 73530 72693 71653 71289
668.6959 72066 72986 73434 73485 73345 73177 73077 73061 73087 73105 73124
673.9992 73206 73413 73737 74083 74310 74321 74124 73827 73561 73408 73363
679.3025 73376 73404 73450 73559 73768 74061 74344 74479 74361 73985 73477
684.6058 73027 72773 72707 72678 72486 72020 71332 70612 70064 69781 69710
689.9091 69693 69579 69297 68868 68349 67774 67133 66392 65533 64577 63573
695.2123 62558 61529 60439 59226 57854 56364 54883 53607 52744 52452 52805
700.5156 53783 55295 57214 59402 61725 64057 66276 68266 69943 71286 72357
705.8189 73286 74207 75190 76199 77112 77785 78137 78199 78107 78025 78071
711.1222 78267 78544 78796 78944 78984 78974 78989 79065 79174 79243 79205
716.4255 79056 78860 78713 78684 78768 78891 78939 78829 78561 78218 77915
721.7288 77725 77655 77665 77711 77765 77820 77873 77908 77897 77817 77670
727.0320 77496 77347 77254 77216 77198 77165 77104 77030 76967 76927 76904
732.3353 76884 76872 76891 76971 77119 77303 77461 77529 77476 77317 77103
737.6386 76898 76760 76729 76818 77014 77273 77536 77741 77850 77864 77816
742.9419 77754 77718 77726 77776 77852 77936 78014 78071 78096 78086 78042
748.2452 77970 77872 77741 77560 77320 77029 76703 76360 76001 75604 75141
753.5485 74599 73998 73389 72836 72390 72064 71828 71613 71330 70893 70243
758.8517 69380 68363 67296 66285 65404 64670 64036 63409 62679 61760 60610
764.1550 59234 57663 55936 54096 52192 50284 48442 46733 45212 43919 42889
769.4583 42160 41774 41780 42216 43108 44462 46268 48502 51130 54102 57346
774.7616 60763 64222 67572 70666 73383 75655 77465 78840 79834 80517 80966
780.0649 81267 81496 81710 81928 82133 82292 82380 82397 82366 82324 82299
785.3682 82296 82300 82283 82221 82105 81950 81789 81659 81580 81548 81534
790.6714 81506 81443 81346 81223 81089 80949 80808 80672 80551 80454 80383
795.9747 80334 80298 80269 80240 80199 80132 80026 79886 79736 79616 79559
801.2780 79570 79626 79686 79711 79675 79576 79426 79250 79074 78926 78826
806.5813 78777 78762 78748 78701 78594 78432 78249 78097 78021 78037 78116
811.8846 78197 78224 78172 78068 77976 77958 78041 78204 78393 78552 78648
817.1879 78673 78642 78576 78496 78416 78345 78282 78210 78110 77969 77789
822.4911 77592 77404 77240 77099 76969 76837 76696 76545 76382 76203 76001
827.7944 75775 75527 75259 74963 74622 74224 73771 73290 72820 72397 72035
833.0977 71720 71424 71118 70786 70419 70009 69542 68995 68350 67600 66749
838.4010 65807 64774 63636 62360 60918 59296 57519 55660 53839 52205 50908
843.7043 50061 49711 49829 50320 51057 51929 52866 53852 54922 56138 57570
849.0076 59269 61245 63452 65787 68109 70275 72175 73762 75046 76072 76893
854.3109 77545 78052 78426 78686 78856 78968 79049 79121 79193 79266 79342
859.6141 79423 79518 79630 79751 79860 79927 79937 79897 79842 79816 79851
864.9174 79952 80091 80228 80327 80370 80353 80286 80179 80045 79909 79800
870.2207 79744 79747 79785 79810 79775 79651 79444 79182 78900 78617 78341
875.5240 78078 77842 77656 77541 77498 77497 77490 77428 77292 77099 76904
880.8273 76779 76797 77004 77413 77989 78658 79322 79888 80294 80524 80598
886.1306 80559 80446 80294 80131 79986 79880 79825 79816 79829 79841 79840
891.4338 79835 79848 79900 79995 80117 80238 80334 80390 80405 80385 80342
896.7371 80286 80232 80191 80171 80164 80147 80088 79962 79766 79523 79280
902.0404 79082 78952 78884 78849 78814 78754 78658 78526 78360 78165 77948
907.3437 77724 77509 77323 77176 77073 77012 76990 77004 77055 77138 77240
912.6470 77338 77405 77420 77378 77297 77204 77131 77096 77100 77127 77164
917.9503 77199 77236 77278 77322 77354 77353 77305 77210 77084 76952 76839
923.2535 76757 76704 76669 76635 76583 76505 76404 76297 76208 76162 76166
928.5568 76209 76265 76303 76301 76252 76161 76047 75928 75824 75748 75705
933.8601 75691 75691 75690 75679 75656 75628 75604 75586 75573 75558 75544
939.1634 75533 75535 75552 75581 75611 75635 75644 75638 75616 75579 75530
944.4667 75478 75434 75413 75417 75441 75473 75502 75527 75555 75598 75658
949.7700 75726 75786 75820 75816 75771 75691 75583 75458 75328 75209 75113
955.0732 75048 75013 74997 74987 74970 74940 74901 74862 74832 74811 74792
960.3765 74764 74714 74639 74538 74419 74286 74146 74012 73913 73883 73954
965.6798 74134 74397 74687 74938 75104 75174 75169 75131 75096 75078 75073
970.9831 75068 75049 75019 74986 74961 74953 74960 74978 75002 75025 75041
976.2864 75039 75009 74945 74849 74729 74601 74475 74359 74257 74168 74089
981.5897 74011 73921 73807 73663 73500 73338 73198 73092 73013 72942 72862
986.8929 72766 72661 72559 72475 72410 72364 72331 72308 72292 72276 72257
992.1962 72227 72185 72133 72079 72029 71988 71958 71936 71915 71884 71830
997.4995 71745 71626 71477 71312 71143 70982 70832 70689 70551 70415 70282
1002.8028 70158 70043 69937 69830 69712 69577 69423 69257 69089 68922 68752
1008.1061 68569 68363 68131 67879 67617 67354 67095 66840 66591 66348 66111
1013.4094 65875 65630 65367 65082 64779 64470 64164 63864 63562 63245 62907
1018.7126 62559 62220 61921 61687 61536 61478 61521 61681 61978 62436 63072
1024.0160 63886 64854 65932 67069 68217 69342 70424 71450 72407 73275 74032
1029.3192 74664 75172 75567 75871 76104 76277 76394 76460 76481 76472 76447
1034.6226 76419 76388 76349 76290 76201 76083 75950 75829 75744 75712 75725
1039.9258 75757 75771 75737 75647 75518 75379 75256 75157 75071 74976 74852
1045.2291 74690 74493 74271 74035 73797 73566 73348 73146 72962 72798 72656
1050.5323 72540 72453 72390 72335 72267 72164 72011 71810 71576 71333 71107
1055.8357 70914 70759 70635 70528 70421 70302 70166 70020 69873 69733 69603
1061.1389 69471 69325 69147 68931 68683 68419 68156 67910 67681 67463 67243
1066.4423 67011 66767 66512 66249 65978 65698 65412 65127 64861 64624 64420
1071.7455 64238 64061 63878 63691 63517 63375 63269 63186 63102 62999 62872
1077.0488 62736 62613 62518 62457 62430 62437 62480 62558 62665 62787 62908
1082.3521 63016 63112 63204 63302 63413 63533 63655 63771 63876 63970 64059
1087.6554 64147 64235 64314 64373 64400 64392 64356 64304 64248 64193 64139
1092.9586 64083 64019 63943 63849 63730 63581 63407 63216 63017 62808 62579
1098.2620 62318 62020 61700 61384 61092 60830 60585 60327 60033 59686 59287
1103.5652 58846 58378 57902 57428 56965 56508 56046 55564 55056 54522 53975
1108.8685 53428 52888 52357 51834 51328 50866 50489 50250 50198 50372 50792
1114.1718 51454 52328 53354 54452 55523 56471 57218 57710 57929 57884 57603
1119.4751 57126 56494 55751 54936 54089 53245 52435 51681 50999 50402 49902
1124.7783 49511 49248 49133 49191 49443 49908 50597 51514 52650 53984 55478
1130.0817 57077 58720 60347 61910 63379 64744 66002 67156 68201 69138 69965
1135.3849 70689 71321 71870 72344 72747 73079 73344 73547 73693 73787 73836
1140.6882 73843 73814 73757 73681 73599 73519 73449 73388 73327 73254 73154
1145.9915 73021 72856 72669 72470 72263 72042 71797 71525 71234 70938 70652
1151.2948 70378 70103 69803 69457 69054 68601 68110 67594 67060 66508 65942
1156.5980 65379 64850 64391 64036 63803 63687 63659 63676 63693 63668 63570
1161.9014 63383 63102 62729 62275 61751 61170 60541 59871 59161 58407 57606
1167.2046 56755 55858 54931 53999 53096 52258 51518 50904 50442 50163 50112
1172.5079 50344 50927 51923 53373 55283 57618 60308 63261 66371 69523 72601
1177.8112 75495 78114 80397 82325 83908 85178 86176 86941 87509 87916 88191
1183.1145 88360 88438 88433 88349 88192 87971 87695 87378 87030 86663 86289
1188.4177 85917 85552 85193 84833 84464 84083 83695 83309 82939 82591 82265
1193.7211 81953 81648 81345 81048 80765 80505 80272 80064 79875 79696 79519
1199.0243 79338 79147 78943 78729 78511 78297 78097 77915 77750 77597 77449
1204.3276 77299 77144 76984 76821 76663 76515 76384 76271 76171 76074 75969
1209.6309 75850 75716 75576 75441 75319 75213 75117 75021 74914 74795 74668
1214.9342 74547 74438 74341 74247 74140 74006 73839 73644 73428 73201 72965
1220.2374 72721 72469 72212 71955 71704 71460 71222 70988 70754 70518 70277
1225.5408 70030 69777 69516 69244 68963 68677 68392 68115 67849 67589 67328
1230.8440 67055 66763 66454 66131 65800 65464 65122 64774 64424 64080 63754
1236.1473 63454 63190 62962 62772 62623 62515 62451 62430 62452 62511 62600
1241.4506 62709 62824 62929 63008 63051 63055 63022 62956 62861 62736 62583
1246.7539 62403 62203 61989 61763 61525 61271 60999 60711 60411 60103 59792
1252.0571 59476 59156 58831 58504 58178 57854 57535 57218 56905 56597 56295
1257.3605 56000 55711 55424 55136 54843 54540 54225 53903 53581 53270 52979
1262.6637 52707 52443 52170 51879 51576 51282 51020 50796 50595 50380 50112
1267.9670 49772 49374 48957 48564 48224 47942 47707 47501 47310 47127 46958
1273.2703 46810 46690 46601 46538 46499 46485 46496 46541 46621 46735 46875
1278.5736 47031 47196 47369 47558 47772 48026 48329 48688 49110 49601 50169
1283.8768 50821 51562 52395 53325 54358 55497 56739 58072 59474 60925 62412
1289.1802 63934 65495 67102 68757 70460 72205 73977 75749 77468 79069 80479
1294.4834 81641 82518 83103 83412 83481 83360 83115 82806 82479 82150 81807
1299.7867 81415 80937 80346 79637 78828 77952 77052 76170 75337 74574 73882
1305.0900 73251 72655 72051 71377 70548 69462 68035 66245 64172 62017 60068
1310.3933 58640 58009 58357 59733 62041 65051 68455 71948 75295 78352 81050
1315.6965 83364 85292 86854 88095 89075 89859 90501 91036 91478 91838 92128
1320.9999 92361 92554 92720 92866 92997 93114 93219 93315 93403 93486 93565
1326.3031 93643 93718 93785 93837 93868 93875 93857 93816 93758 93683 93590
1331.6064 93475 93333 93159 92955 92723 92472 92208 91934 91652 91362 91069
1336.9097 90776 90491 90216 89948 89684 89426 89184 88976 88821 88728 88699
1342.2130 88729 88811 88931 89072 89214 89337 89428 89478 89486 89458 89400
1347.5162 89318 89207 89062 88877 88655 88410 88155 87897 87636 87362 87066
1352.8196 86733 86346 85892 85362 84765 84112 83405 82626 81749 80752 79642
1358.1228 78440 77166 75825 74407 72910 71352 69773 68223 66767 65502 64565
1363.4261 64086 64128 64672 65652 66987 68589 70359 72199 74023 75762 77363
1368.7294 78770 79936 80843 81514 82002 82362 82643 82880 83108 83365 83688
1374.0327 84087 84536 84987 85408 85793 86148 86476 86767 87007 87189 87317
1379.3359 87405 87463 87498 87509 87499 87473 87439 87397 87341 87261 87152
1384.6393 87017 86861 86684 86478 86238 85973 85724 85541 85450 85452 85540
1389.9425 85711 85958 86265 86597 86919 87211 87467 87699 87922 88148 88374
1395.2458 88581 88751 88881 88977 89049 89105 89152 89192 89231 89266 89297
1400.5491 89323 89343 89357 89368 89374 89371 89352 89310 89245 89165 89089
1405.8524 89032 88995 88970 88950 88927 88901 88874 88849 88827 88807 88786
1411.1556 88759 88725 88684 88641 88599 88561 88527 88495 88457 88408 88346
1416.4590 88274 88193 88099 87982 87825 87626 87421 87254 87135 87043 86953
1421.7622 86850 86725 86577 86412 86240 86076 85927 85793 85666 85541 85412
1427.0656 85275 85126 84960 84771 84548 84284 83987 83681 83383 83093 82793
1432.3688 82459 82084 81684 81291 80928 80583 80198 79664 78869 77851 76836
1437.6721 75976 75232 74504 73727 72894 72051 71282 70675 70300 70207 70437
1442.9753 71025 71966 73192 74560 75889 77030 77901 78508 78927 79292 79738
1448.2787 80330 81029 81756 82461 83127 83744 84295 84752 85097 85337 85500
1453.5819 85611 85688 85732 85741 85706 85623 85500 85366 85260 85189 85135
1458.8853 85079 85010 84921 84806 84661 84489 84299 84103 83905 83698 83459
1464.1885 83162 82810 82452 82138 81873 81624 81349 81017 80617 80158 79661
1469.4918 79143 78600 77997 77277 76383 75369 74533 74256 74590 75319 76296
1474.7950 77524 79057 80857 82676 84150 85075 85521 85680 85705 85676 85611
1480.0984 85508 85363 85186 84996 84810 84633 84466 84309 84165 84034 83916
1485.4016 83802 83680 83535 83366 83182 83004 82840 82682 82510 82310 82096
1490.7050 81900 81736 81588 81435 81266 81081 80887 80685 80469 80222 79944
1496.0082 79665 79437 79277 79152 79005 78798 78532 78244 77970 77716 77465
1501.3115 77193 76894 76583 76283 76011 75766 75533 75286 74976 74516 73824
1506.6147 73024 72402 72002 71691 71374 71027 70661 70294 69932 69563 69166
1511.9181 68738 68327 68024 67910 68012 68309 68778 69466 70564 72378 74982
1517.2213 77835 80213 81880 83014 83870 84657 85536 86609 87781 88711 89211
1522.5247 89432 89547 89617 89644 89615 89522 89371 89177 88956 88714 88458
1527.8279 88198 87944 87698 87453 87198 86928 86646 86361 86078 85796 85501
1533.1312 85191 84891 84635 84424 84234 84040 83832 83614 83393 83176 82965
1538.4344 82749 82519 82296 82119 81987 81864 81725 81577 81438 81318 81209
1543.7378 81091 80944 80762 80561 80372 80212 80077 79956 79840 79727 79620
1549.0410 79525 79450 79392 79340 79280 79207 79119 79015 78894 78754 78604
1554.3444 78465 78349 78250 78152 78043 77914 77756 77549 77262 76892 76565
1559.6476 76372 76256 76163 76070 75964 75837 75683 75495 75270 75010 74721
1564.9509 74423 74135 73870 73630 73409 73195 72962 72672 72274 71764 71230
1570.2542 70767 70370 69979 69549 69073 68591 68165 67856 67719 67836 68363
1575.5575 69490 71112 72574 73344 73516 73375 73098 72753 72365 71949 71526
1580.8607 71115 70724 70348 69978 69608 69234 68855 68474 68091 67709 67332
1586.1641 66964 66607 66263 65927 65596 65266 64940 64624 64329 64066 63842
1591.4674 63659 63510 63389 63293 63226 63201 63230 63321 63476 63690 63961
1596.7706 64288 64665 65084 65532 66003 66497 67025 67599 68221 68889 69599
1602.0740 70355 71169 72042 72959 73889 74808 75711 76611 77522 78443 79352
1607.3772 80220 81028 81777 82476 83122 83693 84163 84520 84772 84936 85022
1612.6805 85033 84971 84850 84689 84503 84284 83981 83507 82825 82076 81433
1617.9838 80912 80428 79910 79324 78683 78034 77424 76867 76341 75796 75191
1623.2871 74545 73937 73427 73001 72613 72218 71778 71266 70673 70033 69418
1628.5903 68887 68444 68062 67720 67417 67171 67005 66922 66903 66923 66978
1633.8937 67106 67409 68041 69058 70220 71240 72111 72959 73855 74802 75764
1639.1969 76711 77635 78540 79430 80288 81082 81780 82363 82834 83209 83509
1644.5002 83761 84000 84267 84601 85008 85448 85872 86247 86558 86791 86940
1649.8035 87009 87013 86967 86882 86766 86613 86407 86159 85927 85714 85492
1655.1068 85248 84978 84680 84356 84015 83665 83315 82961 82593 82201 81784
1660.4100 81345 80875 80340 79679 78859 77944 77069 76313 75642 74980 74272
1665.7134 73518 72763 72056 71409 70770 70042 69156 68177 67272 66529 65876
1671.0166 65201 64474 63752 63113 62581 62110 61590 60882 59921 58888 58119
1676.3199 57729 57600 57608 57706 57903 58245 58783 59526 60409 61310 62125
1681.6232 62807 63359 63835 64395 65446 67425 69726 71298 72199 72845 73471
1686.9265 74177 75003 75951 76991 78069 79125 80127 81068 81961 82816 83636
1692.2297 84408 85114 85739 86287 86791 87341 88094 89156 90312 91176 91678
1697.5331 91965 92160 92334 92564 93019 93940 95111 95898 96268 96476 96661
1702.8363 96870 97109 97355 97566 97705 97766 97778 97775 97768 97749 97707
1708.1396 97645 97571 97499 97440 97399 97371 97344 97310 97262 97202 97138
1713.4429 97081 97049 97056 97094 97142 97177 97191 97193 97204 97251 97331
1718.7462 97409 97464 97500 97524 97543 97558 97567 97563 97540 97498 97443
1724.0494 97387 97340 97305 97277 97252 97221 97181 97133 97080 97030 96989
1729.3528 96960 96936 96904 96850 96774 96679 96570 96453 96349 96298 96325
1734.6560 96381 96409 96395 96352 96288 96216 96147 96092 96058 96042 96034
1739.9594 96017 95989 95958 95928 95899 95859 95798 95711 95611 95519 95447
1745.2626 95399 95368 95350 95339 95336 95343 95357 95375 95386 95388 95385
1750.5659 95387 95407 95444 95481 95499 95489 95452 95397 95335 95279 95242
1755.8691 95232 95245 95271 95290 95290 95268 95231 95187 95142 95103 95071
1761.1725 95045 95021 94995 94971 94951 94939 94933 94929 94926 94922 94926
1766.4757 94946 94995 95071 95156 95219 95241 95227 95199 95178 95184 95229
1771.7791 95312 95403 95467 95504 95528 95546 95554 95540 95497 95426 95344
1777.0823 95267 95207 95162 95129 95105 95089 95084 95089 95097 95096 95079
1782.3856 95045 94996 94933 94859 94780 94706 94653 94627 94630 94655 94695
1787.6888 94741 94789 94833 94870 94898 94913 94916 94910 94908 94928 94977
1792.9922 95044 95112 95170 95216 95253 95277 95283 95269 95235 95193 95152
1798.2954 95123 95112 95120 95139 95157 95162 95149 95121 95086 95054 95030
1803.5988 95017 95011 95009 95008 95009 95009 95007 94998 94976 94942 94899
1808.9020 94860 94832 94822 94830 94847 94864 94870 94858 94824 94769 94699
1814.2053 94632 94590 94589 94628 94689 94744 94769 94756 94720 94684 94665
1819.5085 94662 94664 94652 94616 94555 94482 94416 94373 94360 94376 94409
1824.8119 94438 94444 94423 94386 94347 94315 94295 94291 94315 94375 94466
1830.1151 94556 94612 94623 94595 94545 94486 94429 94384 94355 94342 94345
1835.4185 94358 94377 94396 94408 94411 94404 94387 94362 94329 94290 94249
1840.7217 94213 94187 94174 94175 94193 94231 94287 94347 94386 94392 94374
1846.0250 94345 94315 94290 94276 94278 94300 94340 94386 94420 94424 94387
1851.3282 94313 94220 94135 94077 94055 94063 94092 94131 94173 94210 94232
1856.6316 94231 94199 94141 94073 94020 94002 94028 94091 94168 94233 94263
1861.9348 94250 94199 94123 94034 93937 93835 93730 93634 93566 93547 93592
1867.2382 93702 93864 94047 94206 94298 94303 94231 94114 93986 93876 93809
1872.5414 93793 93816 93852 93868 93847 93794 93729 93675 93650 93656 93690
1877.8447 93741 93794 93830 93830 93781 93688 93571 93462 93385 93352 93358
1883.1479 93391 93439 93496 93560 93628 93697 93765 93824 93868 93879 93842
1888.4513 93745 93597 93437 93315 93257 93253 93275 93296 93300 93284 93251
1893.7545 93206 93152 93100 93059 93039 93040 93057 93083 93111 93139 93161
1899.0579 93168 93147 93092 93007 92901 92788 92672 92555 92442 92348 92298
1904.3611 92307 92373 92467 92553 92602 92609 92586 92556 92525 92484 92415
1909.6644 92309 92181 92065 91991 91967 91972 91969 91924 91824 91679 91517
1914.9677 91355 91194 91016 90812 90600 90448 90440 90619 90933 91276 91560
1920.2710 91750 91864 91962 92114 92362 92680 92978 93160 93185 93091 92958
1925.5742 92872 92883 92990 93140 93260 93292 93223 93078 92906 92745 92614
1930.8776 92513 92440 92406 92438 92557 92755 92990 93200 93334 93377 93359
1936.1808 93326 93308 93304 93282 93217 93118 93036 93037 93169 93436 93793
1941.4841 94149 94390 94424 94239 93910 93543 93223 93006 92918 92954 93075
1946.7874 93213 93302 93299 93204 93048 92876 92730 92635 92601 92629 92707
1952.0907 92814 92919 92997 93041 93068 93107 93174 93256 93318 93331 93294
1957.3939 93242 93223 93273 93394 93554 93707 93813 93848 93810 93721 93622
1962.6973 93565 93591 93696 93826 93896 93841 93648 93369 93084 92843 92643
1968.0005 92448 92250 92095 92062 92208 92515 92884 93183 93321 93302 93211
1973.3038 93146 93155 93216 93271 93284 93274 93311 93456 93711 93997 94197
1978.6071 94235 94135 94003 93961 94058 94238 94359 94273 93918 93370 92819
1983.9104 92467 92422 92645 92986 93274 93416 93437 93436 93504 93652 93804
1989.2136 93854 93733 93439 93031 92603 92256 92068 92066 92219 92462 92718
1994.5170 92917 93015 93008 92927 92820 92720 92639 92582 92562 92606 92729
1999.8202 92911 93087 93179 93139 92980 92773 92602 92522 92541 92631 92761
2005.1235 92917 93100 93312 93533 93722 93829 93817 93674 93418 93091 92754
2010.4268 92470 92287 92225 92273 92401 92583 92793 93009 93193 93304 93323
2015.7301 93275 93241 93313 93531 93843 94130 94264 94176 93888 93488 93088
2021.0333 92783 92635 92676 92905 93282 93720 94101 94327 94383 94361 94418
2026.3367 94683 95162 95714 96113 96173 95863 95329 94800 94449 94299 94236
2031.6399 94113 93859 93529 93259 93155 93213 93318 93321 93151 92865 92630
2036.9432 92623 92936 93520 94196 94732 94948 94798 94398 93965 93690 93632
2042.2465 93691 93690 93499 93120 92667 92284 92042 91917 91842 91796 91838
2047.5498 92049 92441 92900 93232 93292 93094 92804 92612 92613 92762 92930
2052.8530 92996 92919 92745 92556 92407 92292 92182 92065 91968 91931 91971
2058.1563 92058 92146 92205 92251 92326 92454 92612 92734 92751 92637 92421
2063.4597 92170 91956 91819 91760 91752 91767 91787 91811 91844 91886 91926
2068.7629 91945 91930 91881 91821 91787 91814 91912 92054 92184 92239 92186
2074.0662 92041 91861 91720 91662 91688 91760 91827 91853 91834 91785 91725
2079.3694 91663 91596 91526 91463 91426 91431 91474 91532 91578 91594 91578
2084.6729 91543 91503 91465 91431 91401 91383 91396 91455 91565 91707 91839
2089.9761 91913 91886 91745 91513 91247 91019 90892 90901 91036 91250 91470
2095.2793 91632 91696 91660 91556 91430 91328 91281 91301 91381 91497 91614
2100.5825 91699 91734 91715 91658 91593 91545 91529 91540 91549 91521 91430
2105.8860 91282 91118 91002 90984 91069 91213 91344 91403 91381 91315 91261
2111.1892 91252 91284 91324 91349 91365 91407 91506 91659 91816 91905 91871
2116.4924 91706 91453 91185 90962 90815 90742 90722 90733 90766 90813 90862
2121.7957 90891 90881 90830 90761 90718 90733 90813 90928 91033 91092 91102
2127.0991 91095 91112 91180 91293 91414 91491 91484 91387 91226 91054 90924
2132.4023 90868 90884 90943 91008 91053 91071 91067 91045 91009 90971 90960
2137.7056 91016 91155 91339 91479 91473 91279 90962 90672 90572 90751 91176
2143.0088 91707 92168 92435 92481 92381 92254 92202 92263 92399 92516 92515
2148.3123 92350 92057 91748 91556 91558 91738 91997 92219 92350 92425 92548
2153.6155 92814 93256 93829 94446 95011 95448 95691 95676 95363 94778 94058
2158.9187 93443 93176 93372 93947 94666 95261 95522 95371 94881 94239 93661
2164.2219 93282 93107 93026 92902 92668 92369 92124 92041 92157 92424 92759
2169.5254 93097 93413 93690 93881 93901 93674 93194 92554 91909 91405 91126
2174.8286 91080 91232 91530 91924 92358 92759 93051 93184 93152 92987 92737
2180.1318 92433 92086 91703 91316 90986 90785 90762 90915 91183 91476 91704
2185.4351 91822 91844 91828 91829 91861 91888 91851 91719 91521 91341 91272
2190.7385 91365 91598 91889 92135 92258 92237 92104 91922 91762 91671 91664
2196.0417 91724 91806 91866 91875 91837 91774 91717 91682 91671 91672 91678
2201.3450 91693 91724 91774 91824 91843 91802 91691 91527 91343 91177 91052
2206.6482 90976 90951 90978 91067 91225 91452 91725 92006 92254 92434 92523
2211.9517 92509 92385 92156 91850 91522 91253 91115 91144 91316 91560 91792
2217.2549 91954 92037 92072 92091 92104 92092 92022 91885 91707 91547 91462
2222.5581 91479 91573 91685 91748 91728 91642 91546 91496 91516 91586 91658
2227.8613 91687 91660 91595 91523 91473 91461 91495 91583 91730 91921 92112
2233.1648 92237 92240 92101 91851 91555 91281 91075 90950 90894 90892 90928
2238.4680 90985 91045 91087 91102 91096 91096 91124 91182 91239 91247 91172
2243.7712 91012 90808 90618 90491 90441 90457 90515 90597 90695 90800 90894
2249.0745 90957 90977 90962 90939 90934 90956 90997 91040 91078 91120 91175
2254.3779 91241 91291 91290 91212 91065 90890 90747 90684 90719 90833 90981
2259.6812 91113 91198 91229 91222 91202 91185 91169 91139 91080 90993 90894
2264.9844 90810 90764 90759 90785 90827 90874 90916 90943 90936 90876 90756
2270.2876 90597 90444 90340 90308 90337 90393 90438 90452 90440 90419 90407
2275.5911 90408 90415 90419 90418 90415 90415 90422 90434 90442 90437 90411
2280.8943 90370 90327 90304 90318 90369 90442 90513 90562 90584 90590 90593
2286.1975 90601 90615 90626 90626 90616 90598 90575 90547 90512 90469 90424
2291.5007 90387 90372 90387 90431 90493 90554 90594 90595 90555 90482 90399
2296.8042 90335 90311 90334 90396 90473 90543 90588 90606 90603 90586 90565
2302.1074 90542 90521 90504 90492 90489 90495 90511 90540 90585 90647 90723
2307.4106 90803 90876 90933 90976 91009 91035 91051 91052 91033 91003 90975
2312.7139 90964 90972 90991 91003 90997 90974 90946 90930 90937 90970 91025
2318.0173 91098 91186 91286 91388 91476 91531 91548 91535 91520 91528 91567
2323.3206 91628 91686 91722 91733 91726 91715 91703 91688 91665 91636 91611
2328.6238 91610 91647 91726 91841 91980 92132 92285 92424 92527 92572 92548
2333.9270 92463 92345 92227 92146 92120 92144 92191 92230 92246 92254 92290
2339.2305 92387 92548 92732 92867 92897 92820 92688 92578 92543 92585 92659
2344.5337 92701 92673 92564 92392 92180 91952 91727 91520 91348 91224 91164
2349.8369 91178 91267 91412 91582 91747 91898 92048 92213 92390 92559 92695
2355.1401 92786 92841 92879 92900 92882 92793 92628 92436 92307 92322 92496
2360.4436 92754 92973 93051 92974 92813 92674 92625 92649 92668 92603 92426
2365.7468 92179 91934 91751 91651 91618 91620 91632 91640 91638 91620 91571
2371.0500 91479 91339 91162 90973 90805 90684 90623 90612 90629 90647 90648
2376.3533 90629 90595 90552 90500 90435 90352 90250 90136 90021 89915 89829
2381.6567 89770 89744 89752 89790 89843 89890 89916 89910 89876 89824 89767
2386.9600 89712 89658 89606 89556 89518 89501 89511 89546 89589 89622 89628
2392.2632 89607 89570 89537 89521 89526 89539 89545 89530 89499 89463 89442
2397.5664 89445 89468 89496 89509 89494 89448 89385 89324 89281 89267 89279
2402.8699 89304 89328 89339 89334 89315 89288 89260 89234 89212 89199 89198
2408.1731 89214 89248 89296 89349 89402 89450 89493 89536 89581 89625 89665
2413.4763 89695 89712 89715 89705 89683 89650 89613 89579 89560 89566 89597
2418.7795 89647 89702 89753 89792 89816 89828 89831 89833 89842 89866 89904
2424.0830 89944 89970 89972 89951 89922 89903 89904 89922 89945 89962 89971
2429.3862 89974 89975 89972 89955 89920 89866 89805 89754 89724 89722 89743
2434.6895 89779 89820 89861 89898 89924 89935 89928 89904 89870 89839 89820
2439.9927 89813 89812 89811 89806 89804 89814 89841 89877 89907 89917 89905
2445.2961 89881 89861 89854 89858 89861 89848 89818 89776 89736 89710 89702
2450.5994 89711 89729 89749 89768 89783 89791 89792 89788 89784 89785 89798
2455.9026 89821 89849 89874 89888 89891 89883 89871 89853 89828 89794 89755
2461.2058 89719 89700 89707 89740 89793 89851 89901 89938 89962 89979 89994
2466.5093 90011 90024 90026 90011 89978 89938 89906 89891 89898 89917 89935
2471.8125 89946 89951 89959 89979 90011 90044 90062 90052 90014 89958 89898
2477.1157 89850 89819 89803 89793 89783 89771 89766 89779 89819 89882 89955
2482.4189 90011 90030 90001 89937 89861 89802 89779 89791 89823 89853 89866
2487.7224 89855 89824 89780 89728 89670 89612 89562 89531 89527 89551 89594
2493.0256 89643 89688 89727 89762 89798 89835 89867 89889 89895 89886 89866
2498.3289 89843 89822 89809 89807 89813 89825 89833 89834 89824 89803 89775
2503.6321 89737 89690 89635 89581 89544 89540 89574 89638 89708 89762 89786
2508.9355 89785 89774 89768 89770 89773 89767 89748 89723 89711 89724 89764
2514.2388 89811 89838 89820 89751 89650 89551 89487 89474 89500 89538 89561
2519.5420 89557 89536 89519 89524 89549 89575 89583 89565 89532 89505 89501
2524.8452 89520 89547 89566 89570 89570 89587 89633 89705 89786 89849 89879
2530.1487 89874 89842 89793 89728 89652 89569 89499 89465 89483 89554 89651
2535.4519 89740 89791 89793 89759 89714 89679 89662 89662 89672 89688 89712
2540.7551 89744 89779 89808 89821 89814 89795 89772 89753 89738 89719 89686
2546.0583 89638 89579 89517 89459 89409 89369 89344 89342 89365 89408 89455
2551.3618 89489 89499 89491 89482 89490 89522 89570 89617 89651 89668 89675
2556.6650 89679 89686 89698 89715 89742 89779 89824 89865 89887 89877 89836
2561.9683 89782 89734 89709 89708 89723 89735 89733 89716 89695 89684 89695
2567.2715 89727 89765 89787 89772 89720 89645 89576 89539 89547 89594 89659
2572.5750 89720 89757 89764 89743 89704 89656 89609 89570 89541 89523 89511
2577.8782 89500 89484 89458 89417 89361 89296 89235 89193 89180 89201 89245
2583.1814 89299 89345 89373 89381 89372 89349 89317 89280 89242 89207 89179
2588.4849 89154 89131 89108 89084 89063 89051 89051 89067 89099 89146 89204
2593.7881 89261 89305 89322 89310 89274 89231 89196 89180 89183 89197 89214
2599.0913 89231 89248 89265 89279 89286 89281 89263 89237 89210 89186 89166
2604.3945 89147 89128 89112 89105 89112 89134 89168 89206 89239 89261 89266
2609.6980 89251 89215 89164 89108 89064 89044 89055 89092 89140 89182 89205
2615.0012 89208 89197 89184 89177 89180 89187 89193 89192 89181 89163 89144
2620.3044 89128 89122 89131 89153 89185 89218 89246 89262 89266 89266 89267
2625.6077 89271 89278 89281 89276 89263 89250 89243 89243 89246 89241 89218
2630.9111 89177 89126 89079 89048 89037 89041 89051 89059 89061 89057 89047
2636.2144 89035 89022 89009 88997 88982 88959 88926 88881 88831 88784 88750
2641.5176 88734 88735 88749 88768 88784 88795 88797 88792 88779 88760 88736
2646.8208 88711 88687 88667 88653 88645 88644 88648 88657 88666 88676 88684
2652.1243 88692 88702 88713 88726 88739 88748 88755 88760 88767 88774 88780
2657.4275 88780 88772 88757 88740 88726 88718 88713 88705 88691 88670 88645
2662.7307 88617 88590 88564 88540 88519 88501 88487 88473 88455 88433 88406
2668.0339 88378 88352 88329 88309 88288 88264 88238 88212 88192 88184 88191
2673.3374 88212 88241 88270 88293 88308 88313 88313 88309 88302 88296 88293
2678.6406 88301 88322 88357 88398 88437 88465 88484 88499 88518 88547 88584
2683.9438 88624 88659 88684 88698 88706 88711 88718 88728 88743 88763 88788
2689.2471 88816 88845 88870 88889 88900 88905 88906 88904 88900 88893 88883
2694.5505 88870 88857 88847 88839 88832 88823 88810 88794 88779 88768 88765
2699.8538 88769 88773 88772 88761 88741 88719 88701 88695 88704 88726 88754
2705.1570 88784 88811 88832 88846 88853 88851 88843 88834 88830 88839 88863
2710.4602 88899 88938 88972 88994 89005 89008 89010 89014 89019 89023 89025
2715.7637 89026 89031 89043 89061 89081 89100 89115 89129 89143 89159 89173
2721.0669 89184 89189 89189 89188 89189 89194 89201 89206 89205 89196 89178
2726.3701 89153 89127 89107 89098 89105 89126 89155 89187 89218 89246 89268
2731.6733 89280 89279 89264 89238 89211 89192 89186 89186 89182 89164 89131
2736.9768 89090 89056 89038 89038 89051 89067 89079 89086 89092 89102 89117
2742.2800 89136 89154 89164 89161 89143 89113 89078 89047 89027 89021 89027
2747.5833 89036 89038 89030 89012 88994 88986 88994 89017 89045 89068 89076
2752.8865 89068 89048 89021 88995 88971 88949 88926 88902 88880 88862 88849
2758.1899 88842 88839 88839 88838 88837 88834 88829 88824 88818 88811 88802
2763.4932 88787 88765 88736 88706 88683 88671 88669 88671 88670 88664 88654
2768.7964 88644 88640 88642 88647 88654 88659 88664 88670 88677 88687 88700
2774.0996 88720 88748 88787 88831 88872 88900 88911 88906 88892 88884 88891
2779.4031 88916 88954 88995 89028 89047 89052 89045 89029 89008 88983 88957
2784.7063 88936 88924 88926 88941 88962 88985 89005 89019 89029 89037 89041
2790.0095 89038 89025 89001 88969 88937 88918 88918 88937 88969 89002 89024
2795.3127 89032 89025 89009 88988 88964 88938 88914 88899 88896 88911 88941
2800.6162 88979 89016 89042 89049 89031 88993 88943 88895 88861 88847 88849
2805.9194 88857 88860 88856 88846 88839 88836 88836 88832 88818 88798 88777
2811.2227 88763 88757 88754 88748 88736 88722 88711 88710 88720 88736 88753
2816.5259 88768 88779 88786 88791 88793 88791 88786 88779 88774 88772 88777
2821.8293 88785 88798 88811 88822 88829 88827 88817 88801 88784 88774 88777
2827.1326 88797 88829 88864 88892 88908 88909 88902 88889 88873 88853 88830
2832.4358 88805 88783 88772 88776 88791 88813 88832 88846 88851 88850 88842
2837.7390 88828 88809 88787 88768 88753 88744 88737 88727 88711 88692 88674
2843.0425 88664 88665 88677 88693 88704 88702 88685 88656 88624 88600 88589
2848.3457 88592 88600 88605 88604 88598 88595 88599 88609 88617 88611 88588
2853.6489 88554 88522 88503 88503 88514 88523 88521 88507 88487 88470 88460
2858.9521 88450 88429 88389 88331 88269 88220 88193 88185 88182 88164 88121
2864.2556 88053 87975 87901 87842 87800 87772 87755 87750 87759 87783 87819
2869.5588 87860 87903 87946 87992 88040 88086 88122 88142 88145 88138 88128
2874.8621 88121 88118 88116 88109 88097 88077 88049 88011 87961 87899 87828
2880.1653 87756 87692 87640 87603 87577 87556 87531 87495 87445 87383 87315
2885.4688 87247 87181 87114 87041 86956 86855 86742 86620 86492 86360 86225
2890.7720 86088 85957 85835 85728 85635 85550 85464 85371 85268 85166 85086
2896.0752 85057 85106 85247 85479 85779 86120 86476 86829 87173 87502 87805
2901.3784 88068 88275 88418 88504 88547 88565 88573 88578 88579 88574 88564
2906.6819 88553 88546 88545 88551 88558 88559 88546 88518 88477 88430 88386
2911.9851 88352 88328 88310 88292 88270 88241 88208 88173 88136 88092 88033
2917.2883 87957 87865 87766 87672 87589 87517 87451 87385 87320 87259 87208
2922.5916 87171 87141 87113 87079 87039 86994 86945 86887 86812 86715 86598
2927.8950 86473 86353 86250 86170 86113 86076 86053 86036 86013 85971 85895
2933.1982 85781 85631 85458 85281 85128 85024 84991 85041 85168 85355 85572
2938.5015 85797 86014 86215 86397 86552 86667 86731 86737 86687 86594 86472
2943.8047 86330 86176 86012 85845 85680 85523 85374 85227 85076 84913 84741
2949.1082 84567 84405 84271 84177 84129 84130 84177 84267 84395 84561 84761
2954.4114 84986 85224 85458 85673 85858 86009 86127 86213 86271 86301 86309
2959.7146 86303 86301 86322 86386 86504 86674 86877 87085 87270 87412 87511
2965.0178 87582 87645 87713 87788 87856 87900 87904 87867 87795 87705 87613
2970.3213 87530 87461 87399 87336 87258 87159 87036 86890 86722 86529 86310
2975.6245 86067 85814 85581 85403 85312 85326 85442 85641 85897 86186 86492
2980.9277 86805 87119 87424 87706 87950 88149 88302 88413 88491 88539 88557
2986.2310 88545 88505 88446 88375 88296 88205 88095 87957 87789 87595 87381
2991.5344 87153 86918 86685 86472 86297 86184 86150 86200 86331 86530 86782
2996.8376 87070 87376 87679 87960 88207 88416 88595 88760 88923 89085 89233
3002.1409 89349 89417 89436 89420 89391 89370 89369 89389 89422 89459 89489
3007.4441 89507 89508 89490 89452 89400 89345 89297 89266 89257 89271 89301
3012.7476 89340 89378 89407 89419 89410 89380 89337 89292 89256 89238 89237
3018.0508 89243 89241 89223 89187 89145 89113 89102 89115 89141 89160 89159
3023.3540 89131 89083 89029 88985 88961 88958 88972 88995 89017 89028 89024
3028.6572 89004 88975 88945 88920 88902 88887 88870 88852 88836 88829 88831
3033.9607 88838 88841 88832 88812 88792 88783 88791 88814 88837 88845 88824
3039.2639 88770 88692 88599 88502 88406 88316 88235 88168 88116 88078 88051
3044.5671 88028 88006 87991 87992 88020 88079 88168 88277 88391 88497 88588
3049.8704 88661 88719 88766 88802 88826 88832 88815 88779 88731 88684 88648
3055.1738 88629 88622 88621 88623 88630 88646 88672 88702 88722 88719 88688
3060.4771 88638 88582 88537 88510 88498 88491 88480 88458 88423 88379 88327
3065.7803 88273 88222 88181 88156 88149 88156 88166 88171 88168 88163 88168
3071.0835 88188 88221 88254 88273 88272 88259 88247 88249 88268 88298 88329
3076.3870 88357 88382 88411 88447 88485 88518 88539 88545 88544 88546 88558
3081.6902 88581 88608 88632 88644 88642 88626 88601 88572 88542 88517 88500
3086.9934 88497 88510 88538 88574 88607 88626 88624 88600 88556 88502 88448
3092.2966 88407 88385 88385 88407 88446 88498 88555 88610 88649 88661 88634
3097.6001 88571 88483 88393 88327 88300 88315 88359 88411 88453 88477 88486
3102.9033 88491 88503 88523 88544 88553 88539 88503 88453 88402 88357 88322
3108.2065 88295 88277 88274 88289 88320 88355 88383 88394 88389 88376 88363
3113.5098 88352 88334 88304 88260 88209 88162 88130 88114 88113 88124 88143
3118.8132 88166 88189 88206 88210 88202 88186 88165 88145 88126 88108 88090
3124.1165 88072 88058 88053 88054 88057 88051 88027 87984 87931 87885 87863
3129.4197 87871 87898 87925 87934 87921 87902 87898 87924 87977 88037 88078
3134.7229 88086 88061 88012 87951 87885 87819 87762 87724 87716 87736 87771
3140.0264 87798 87799 87767 87715 87660 87619 87593 87573 87548 87515 87480
3145.3296 87453 87445 87460 87492 87534 87579 87621 87658 87683 87689 87669
3150.6328 87622 87555 87483 87419 87372 87345 87337 87344 87366 87402 87449
3155.9360 87497 87534 87551 87547 87530 87509 87491 87477 87458 87431 87395
3161.2395 87357 87325 87306 87300 87307 87323 87347 87376 87404 87420 87414
3166.5427 87381 87320 87242 87157 87080 87021 86989 86983 86998 87021 87038
3171.8459 87039 87022 86989 86946 86897 86847 86797 86753 86718 86694 86677
3177.1492 86660 86636 86602 86565 86532 86510 86502 86507 86518 86529 86532
3182.4526 86519 86483 86420 86333 86233 86136 86060 86012 85986 85972 85954
3187.7559 85924 85881 85831 85781 85736 85701 85679 85669 85665 85652 85612
3193.0591 85533 85418 85286 85165 85075 85019 84982 84942 84884 84805 84712
3198.3623 84617 84531 84457 84393 84336 84278 84211 84127 84021 83894 83757
3203.6658 83621 83496 83389 83299 83219 83139 83049 82944 82829 82710 82597
3208.9690 82494 82400 82306 82207 82099 81984 81869 81756 81652 81558 81476
3214.2722 81404 81336 81260 81168 81058 80938 80822 80725 80656 80612 80588
3219.5754 80573 80564 80562 80575 80611 80675 80764 80867 80972 81074 81176
3224.8789 81294 81442 81629 81844 82069 82283 82474 82646 82809 82976 83150
3230.1821 83324 83485 83622 83733 83825 83911 84006 84119 84251 84387 84510
3235.4854 84601 84653 84670 84670 84673 84694 84735 84792 84853 84913 84966
3240.7886 85008 85036 85041 85020 84973 84909 84845 84801 84790 84817 84876
3246.0920 84956 85049 85145 85243 85340 85434 85525 85612 85697 85783 85874
3251.3953 85972 86076 86180 86275 86353 86412 86452 86485 86517 86555 86598
3256.6985 86641 86679 86711 86735 86754 86770 86785 86800 86814 86823 86819
3262.0017 86801 86774 86753 86753 86780 86822 86854 86851 86806 86735 86668
3267.3052 86631 86629 86642 86641 86602 86527 86434 86348 86290 86262 86255
3272.6084 86256 86252 86238 86209 86168 86117 86057 85990 85917 85843 85773
3277.9116 85717 85684 85681 85701 85732 85755 85757 85729 85671 85588 85491
3283.2148 85391 85300 85227 85176 85139 85104 85061 85006 84943 84883 84837
3288.5183 84808 84790 84772 84740 84688 84618 84538 84465 84407 84365 84327
3293.8215 84276 84198 84095 83978 83868 83779 83712 83655 83593 83517 83428
3299.1248 83335 83251 83181 83121 83059 82980 82875 82744 82599 82459 82345
3304.4280 82266 82220 82189 82150 82084 81984 81858 81722 81593 81476 81366
3309.7314 81255 81136 81015 80904 80814 80750 80704 80664 80617 80555 80477
3315.0347 80387 80292 80203 80128 80075 80041 80010 79959 79869 79734 79569
3320.3379 79403 79262 79159 79084 79016 78938 78844 78742 78642 78546 78448
3325.6411 78334 78197 78040 77877 77722 77585 77464 77354 77247 77144 77050
3330.9446 76973 76915 76869 76818 76741 76625 76470 76290 76109 75951 75831
3336.2478 75752 75703 75668 75633 75590 75541 75498 75473 75475 75507 75562
3341.5510 75630 75707 75794 75901 76037 76209 76415 76648 76903 77178 77474
3346.8542 77797 78145 78513 78893 79273 79646 80007 80358 80698 81037 81381
3352.1577 81743 82126 82529 82940 83345 83731 84097 84449 84796 85141 85479
3357.4609 85797 86085 86343 86579 86802 87019 87226 87419 87595 87758 87917
3362.7642 88079 88241 88396 88533 88647 88741 88821 88894 88960 89018 89064
3368.0674 89100 89127 89148 89168 89187 89210 89242 89284 89336 89389 89432
3373.3708 89455 89453 89429 89396 89369 89361 89378 89412 89444 89455 89431
3378.6741 89372 89292 89206 89127 89063 89012 88972 88940 88912 88883 88846
3383.9773 88800 88747 88695 88646 88599 88547 88484 88411 88334 88257 88180
3389.2805 88096 88001 87897 87794 87703 87626 87552 87463 87347 87204 87049
3394.5840 86901 86770 86656 86551 86447 86343 86244 86157 86079 86002 85911
3399.8872 85801 85673 85537 85400 85263 85118 84956 84774 84580 84382 84192
3405.1904 84013 83847 83695 83559 83434 83309 83170 83002 82800 82572 82334
3410.4937 82099 81875 81659 81446 81234 81025 80821 80625 80433 80235 80022
3415.7971 79791 79549 79309 79091 78911 78775 78676 78599 78530 78458 78387
3421.1003 78324 78278 78255 78252 78270 78310 78374 78468 78593 78746 78927
3426.4036 79134 79367 79622 79890 80161 80425 80680 80935 81201 81486 81796
3431.7068 82127 82476 82842 83223 83615 84015 84411 84795 85157 85495 85808
3437.0103 86100 86376 86643 86902 87151 87381 87581 87748 87890 88026 88178
3442.3135 88360 88571 88793 89004 89191 89357 89512 89667 89823 89969 90089
3447.6167 90178 90241 90291 90340 90389 90438 90484 90533 90589 90655 90727
3452.9199 90792 90838 90862 90875 90890 90922 90972 91035 91100 91155 91194
3458.2234 91218 91234 91252 91282 91329 91388 91447 91490 91507 91498 91473
3463.5266 91448 91430 91424 91429 91441 91460 91486 91518 91553 91588 91622
3468.8298 91654 91685 91716 91746 91773 91794 91806 91808 91800 91790 91782
3474.1331 91784 91794 91805 91806 91788 91748 91695 91644 91613 91612 91638
3479.4365 91677 91712 91728 91720 91693 91660 91635 91625 91636 91664 91706
3484.7397 91753 91796 91826 91845 91858 91878 91912 91955 91991 92004 91983
3490.0430 91933 91869 91807 91760 91732 91721 91721 91728 91738 91747 91752
3495.3462 91749 91737 91715 91686 91650 91612 91580 91563 91573 91612 91671
3500.6497 91730 91770 91781 91766 91743 91732 91738 91752 91757 91743 91715
3505.9529 91689 91682 91704 91750 91802 91844 91864 91865 91855 91839 91814
3511.2561 91777 91732 91694 91681 91706 91765 91837 91895 91921 91910 91875
3516.5593 91836 91810 91805 91817 91834 91842 91834 91811 91779 91749 91727
3521.8628 91710 91689 91657 91614 91571 91540 91530 91538 91554 91566 91570
3527.1660 91569 91572 91587 91615 91650 91684 91705 91707 91692 91665 91636
3532.4692 91613 91593 91567 91527 91466 91394 91332 91299 91305 91342 91389
3537.7725 91429 91455 91470 91485 91505 91533 91559 91572 91558 91511 91438
3543.0759 91357 91292 91260 91269 91306 91355 91397 91425 91440 91446 91447
3548.3792 91445 91441 91432 91417 91392 91354 91306 91259 91226 91213 91220
3553.6824 91240 91264 91289 91311 91326 91330 91319 91297 91272 91253 91245
3558.9856 91247 91247 91238 91211 91170 91123 91081 91054 91046 91057 91078
3564.2891 91099 91115 91130 91155 91208 91288 91375 91430 91427 91366 91269
3569.5923 91164 91077 91025 91016 91042 91084 91125 91152 91166 91178 91197
3574.8955 91225 91258 91286 91300 91298 91282 91257 91230 91206 91191 91186
3580.1990 91188 91185 91171 91144 91114 91094 91098 91123 91151 91160 91130
3585.5022 91055 90948 90845 90788 90801 90875 90980 91081 91156 91202 91225
3590.8054 91235 91242 91256 91277 91297 91302 91281 91226 91144 91052 90972
3596.1086 90919 90895 90893 90902 90915 90926 90938 90952 90971 90995 91022
3601.4121 91054 91093 91136 91175 91196 91188 91151 91093 91033 90994 90991
3606.7153 91030 91100 91178 91233 91238 91183 91083 90967 90871 90820 90835
3612.0186 90915 91034 91136 91179 91153 91085 91006 90941 90898 90876 90870
3617.3218 90879 90906 90956 91027 91105 91166 91191 91177 91136 91083 91033
3622.6252 90995 90972 90963 90964 90972 90983 90988 90981 90955 90916 90886
3627.9285 90909 91030 91219 91359 91379 91297 91162 91009 90870 90774 90747
3633.2317 90797 90900 91006 91076 91096 91070 91011 90931 90845 90768 90719
3638.5349 90711 90743 90799 90856 90894 90902 90885 90860 90845 90847 90857
3643.8384 90856 90828 90766 90678 90588 90531 90541 90621 90732 90829 90890
3649.1416 90923 90942 90951 90941 90908 90863 90819 90783 90754 90726 90695
3654.4448 90665 90659 90703 90810 90937 91019 91025 90963 90866 90772 90714
3659.7480 90709 90749 90805 90843 90842 90805 90749 90701 90680 90689 90714
3665.0515 90734 90736 90720 90701 90693 90706 90730 90741 90719 90672 90649
3670.3547 90688 90773 90845 90863 90818 90722 90594 90469 90411 90511 90772
3675.6580 91004 91061 90981 90841 90692 90566 90485 90459 90477 90516 90554
3680.9612 90586 90617 90651 90685 90712 90725 90723 90709 90684 90644 90584
3686.2646 90505 90423 90375 90408 90526 90665 90751 90765 90736 90708 90713
3691.5679 90749 90786 90799 90786 90761 90745 90753 90785 90824 90849 90846
3696.8711 90818 90780 90742 90708 90674 90635 90597 90579 90605 90683 90787
3702.1743 90865 90889 90866 90825 90792 90780 90782 90776 90743 90680 90600
3707.4778 90525 90473 90450 90446 90442 90432 90431 90468 90556 90671 90757
3712.7810 90783 90763 90728 90698 90675 90649 90608 90551 90492 90456 90468
3718.0842 90539 90648 90752 90811 90812 90763 90692 90633 90618 90646 90688
3723.3875 90709 90691 90640 90582 90548 90563 90625 90708 90782 90837 90874
3728.6909 90898 90914 90921 90923 90920 90913 90890 90838 90752 90648 90555
3733.9941 90513 90557 90682 90811 90852 90787 90665 90546 90467 90432 90428
3739.2974 90438 90455 90477 90500 90511 90491 90423 90298 90131 89999 90062
3744.6006 90352 90646 90790 90799 90724 90604 90472 90364 90322 90367 90462
3749.9041 90541 90568 90548 90512 90498 90517 90544 90548 90518 90461 90395
3755.2073 90346 90336 90370 90428 90481 90517 90546 90587 90645 90696 90701
3760.5105 90647 90554 90459 90391 90369 90389 90434 90481 90510 90515 90497
3765.8137 90465 90425 90379 90331 90287 90259 90267 90322 90414 90502 90556
3771.1172 90571 90560 90539 90517 90498 90479 90457 90429 90396 90359 90320
3776.4204 90281 90243 90209 90190 90200 90249 90333 90425 90492 90518 90500
3781.7236 90446 90370 90291 90229 90201 90212 90252 90303 90347 90376 90393
3787.0269 90404 90412 90414 90407 90386 90352 90314 90283 90267 90268 90279
3792.3303 90288 90285 90266 90240 90221 90228 90274 90361 90462 90531 90538
3797.6335 90488 90405 90318 90246 90203 90204 90257 90351 90440 90485 90483
3802.9368 90449 90393 90322 90239 90153 90083 90061 90110 90218 90326 90390
3808.2400 90404 90387 90350 90299 90234 90162 90097 90059 90057 90086 90129
3813.5435 90166 90190 90210 90251 90333 90434 90496 90492 90439 90365 90292
3818.8467 90236 90212 90237 90317 90420 90485 90483 90435 90371 90313 90270
3824.1499 90245 90236 90235 90233 90222 90204 90181 90159 90140 90127 90122
3829.4531 90135 90174 90246 90337 90410 90431 90394 90317 90226 90142 90076
3834.7566 90033 90005 89991 89999 90050 90157 90301 90431 90509 90540 90548
3840.0598 90549 90534 90488 90404 90294 90182 90100 90069 90094 90151 90216
3845.3630 90273 90319 90349 90357 90338 90290 90222 90148 90083 90037 90014
3850.6663 90021 90067 90168 90339 90580 90824 90955 90928 90809 90668 90535
3855.9697 90418 90326 90270 90251 90260 90273 90272 90253 90223 90198 90195
3861.2729 90218 90250 90266 90253 90214 90168 90138 90139 90163 90186 90191
3866.5762 90177 90151 90122 90103 90114 90184 90316 90450 90519 90507 90434
3871.8794 90325 90203 90093 90031 90037 90097 90162 90201 90209 90198 90186
3877.1829 90181 90184 90190 90192 90188 90183 90192 90222 90263 90296 90307
3882.4861 90286 90232 90149 90057 89985 89972 90039 90155 90260 90314 90313
3887.7893 90272 90215 90162 90136 90151 90208 90287 90352 90377 90368 90346
3893.0925 90325 90307 90283 90248 90202 90155 90117 90095 90091 90104 90130
3898.3960 90161 90177 90163 90114 90049 89996 89985 90025 90101 90177 90222
3903.6992 90228 90215 90204 90204 90206 90197 90172 90134 90089 90044 90003
3909.0024 89968 89948 89953 89990 90053 90124 90180 90205 90194 90156 90108
3914.3057 90064 90034 90022 90031 90059 90094 90118 90117 90090 90047 90010
3919.6091 89995 90012 90051 90090 90112 90109 90082 90040 89993 89958 89944
3924.9124 89955 89984 90025 90071 90123 90180 90237 90284 90307 90296 90251
3930.2156 90185 90118 90067 90047 90056 90082 90106 90116 90113 90104 90101
3935.5188 90108 90126 90143 90148 90138 90115 90093 90079 90076 90074 90068
3940.8223 90054 90042 90042 90058 90081 90094 90089 90067 90045 90039 90060
3946.1255 90108 90171 90228 90258 90250 90208 90143 90076 90025 90001 90004
3951.4287 90025 90049 90064 90061 90045 90028 90025 90043 90083 90135 90187
3956.7319 90225 90243 90238 90211 90164 90105 90045 90001 89988 90010 90059
3962.0354 90113 90149 90152 90122 90068 90004 89946 89901 89871 89854 89848
3967.3386 89854 89875 89913 89967 90025 90074 90105 90116 90112 90105 90104
3972.6418 90111 90118 90116 90096 90058 90013 89978 89968 89988 90030 90077
3977.9451 90112 90126 90121 90109 90103 90104 90104 90091 90058 90009 89960
3983.2485 89927 89920 89936 89966 89996 90018 90030 90038 90049 90071 90104
3988.5518 90142 90174 90189 90183 90159 90128 90097 90066 90029 89978 89918
3993.8550 89866 89848 89883 89966 90071 90157 90195 90180 90133 90086 90062
3999.1582 90067 90087 90105
##END= 
