##TITLE= INC17
##JCAMP-DX= 4.24
##DATA TYPE= INFRARED SPECTRUM
##ORIGIN= JASCO
##OWNER= 
##DATE= 22/04/12
##TIME= 12:46:52
##SPECTROMETER/DATA SYSTEM= 
##RESOLUTION= 
##DELTAX=   0.48211674
##XUNITS= 1/CM
##YUNITS= TRANSMITTANCE
##XFACTOR= 1.00000
##YFACTOR= 1E-005
##FIRSTX=   599.7532
##LASTX=  4000.1226
##NPOINTS=     7054
##FIRSTY=      0.73346
##MAXY=      0.99010
##MINY=      0.22978
##XYDATA= (X++(Y..Y))
599.7532 73346 71987 70860 70001 69323 68641 67771 66660 65475 64585 64421
605.0565 65287 67232 70027 73270 76546 79554 82137 84235 85821 86888 87474
610.3598 87691 87715 87717 87799 87968 88158 88294 88343 88318 88254 88171
615.6631 88052 87861 87573 87200 86799 86449 86212 86102 86086 86100 86085
620.9664 86018 85932 85897 85967 86137 86334 86463 86482 86452 86513 86789
626.2697 87275 87812 88142 88045 87448 86483 85427 84577 84121 84082 84355
631.5729 84784 85237 85639 85961 86185 86282 86222 85998 85652 85258 84891
636.8762 84579 84295 83987 83613 83177 82729 82337 82047 81862 81748 81662
642.1795 81592 81569 81657 81904 82297 82738 83073 83162 82945 82470 81862
647.4828 81261 80765 80398 80122 79873 79592 79251 78850 78401 77919 77409
652.7861 76876 76330 75803 75353 75044 74909 74920 74977 74950 74735 74292
658.0894 73663 72947 72256 71678 71247 70947 70727 70521 70264 69910 69442
663.3926 68884 68298 67758 67316 66979 66714 66456 66094 65412 64080 62219
668.6959 60916 60430 60173 59845 59418 58948 58497 58076 57615 57004 56175
673.9992 55177 54173 53360 52858 52645 52571 52444 52120 51555 50785 49891
679.3025 48954 48053 47260 46632 46206 45996 46021 46332 47013 48156 49797
684.6058 51880 54230 56583 58628 60085 60779 60691 59974 58921 57893 57224
689.9091 57116 57567 58355 59098 59349 58732 57054 54352 50855 46864 42626
695.2123 38286 33961 29857 26343 23904 22978 23791 26271 30115 34919 40270
700.5156 45757 50946 55431 58958 61570 63595 65483 67568 69919 72375 74719
705.8189 76849 78841 80845 82945 85071 87038 88661 89860 90670 91183 91475
711.1222 91593 91578 91492 91399 91312 91173 90889 90420 89841 89325 89053
716.4255 89101 89388 89722 89902 89818 89472 88949 88359 87790 87285 86849
721.7288 86467 86114 85762 85388 84985 84566 84161 83798 83483 83200 82921
727.0320 82619 82284 81915 81515 81083 80610 80088 79506 78854 78128 77333
732.3353 76492 75639 74799 73974 73120 72170 71059 69766 68317 66773 65185
737.6386 63569 61898 60115 58168 56029 53695 51190 48555 45847 43145 40546
742.9419 38167 36138 34590 33633 33341 33736 34781 36385 38416 40732 43203
748.2452 45737 48272 50765 53167 55419 57475 59324 61009 62605 64187 65791
753.5485 67404 68988 70506 71939 73274 74494 75571 76483 77235 77871 78450
758.8517 79007 79524 79935 80167 80179 79982 79631 79189 78704 78199 77687
764.1550 77187 76734 76369 76115 75967 75887 75815 75697 75496 75201 74822
769.4583 74371 73855 73270 72610 71880 71092 70253 69360 68396 67350 66245
774.7616 65149 64161 63381 62879 62686 62810 63263 64070 65258 66827 68723
780.0649 70837 73017 75110 76994 78601 79923 80996 81874 82608 83239 83798
785.3682 84316 84835 85401 86043 86766 87539 88309 89023 89647 90161 90559
790.6714 90842 91019 91120 91198 91318 91521 91801 92103 92349 92478 92477
795.9747 92381 92246 92114 92003 91914 91849 91816 91820 91852 91890 91915
801.2780 91927 91940 91961 91965 91905 91740 91473 91161 90884 90691 90570
806.5813 90459 90293 90054 89782 89551 89420 89400 89459 89541 89599 89606
811.8846 89563 89482 89380 89271 89157 89030 88871 88664 88405 88109 87812
817.1879 87552 87357 87235 87170 87141 87132 87140 87178 87255 87366 87487
822.4911 87584 87626 87602 87515 87375 87188 86958 86690 86402 86123 85877
827.7944 85673 85500 85335 85152 84940 84705 84465 84240 84047 83887 83743
833.0977 83583 83373 83094 82751 82377 82014 81684 81379 81057 80667 80173
838.4010 79567 78871 78116 77327 76505 75636 74693 73649 72483 71189 69770
843.7043 68238 66611 64910 63164 61416 59737 58236 57053 56331 56185 56653
849.0076 57679 59112 60747 62386 63890 65211 66384 67499 68664 69971 71473
854.3109 73178 75054 77035 79037 80973 82768 84371 85755 86912 87852 88593
859.6141 89164 89607 89969 90297 90622 90953 91282 91589 91856 92072 92233
864.9174 92340 92394 92398 92356 92278 92177 92066 91958 91864 91791 91738
870.2207 91696 91642 91549 91396 91172 90893 90590 90306 90074 89909 89803
875.5240 89731 89667 89602 89542 89506 89510 89551 89603 89631 89604 89513
880.8273 89375 89224 89097 89018 88993 89010 89051 89101 89152 89198 89240
886.1306 89278 89315 89359 89421 89510 89624 89747 89861 89943 89980 89971
891.4338 89919 89836 89731 89609 89471 89315 89136 88934 88722 88523 88361
896.7371 88254 88199 88178 88160 88117 88031 87890 87687 87419 87089 86706
902.0404 86289 85855 85419 84990 84574 84174 83790 83409 83011 82567 82061
907.3437 81487 80854 80174 79448 78666 77822 76920 75995 75105 74323 73724
912.6470 73373 73318 73583 74165 75023 76090 77275 78482 79635 80684 81613
917.9503 82433 83161 83813 84388 84872 85249 85516 85691 85811 85910 86009
923.2535 86104 86174 86201 86183 86136 86081 86032 85990 85945 85892 85829
928.5568 85764 85700 85634 85558 85465 85360 85253 85157 85078 85007 84926
933.8601 84818 84671 84487 84278 84056 83832 83606 83371 83121 82850 82559
939.1634 82251 81930 81593 81230 80828 80372 79849 79251 78577 77837 77052
944.4667 76247 75446 74668 73920 73210 72552 71977 71527 71245 71165 71298
949.7700 71631 72134 72769 73497 74282 75096 75913 76714 77486 78222 78917
955.0732 79571 80184 80761 81308 81831 82332 82807 83242 83619 83917 84120
960.3765 84228 84257 84233 84187 84139 84088 84019 83910 83754 83564 83369
965.6798 83195 83053 82930 82804 82667 82532 82434 82407 82463 82581 82714
970.9831 82816 82855 82829 82755 82654 82544 82434 82328 82233 82160 82113
976.2864 82089 82070 82031 81951 81817 81634 81415 81175 80924 80666 80398
981.5897 80116 79816 79491 79138 78758 78354 77932 77500 77066 76640 76231
986.8929 75850 75500 75178 74870 74565 74256 73947 73647 73357 73068 72765
992.1962 72435 72079 71710 71346 70999 70672 70366 70085 69839 69640 69495
997.4995 69394 69320 69256 69187 69107 69018 68919 68811 68692 68560 68423
1002.8028 68303 68246 68334 68665 69328 70366 71744 73353 75035 76637 78048
1008.1061 79219 80151 80871 81410 81797 82055 82207 82277 82288 82254 82179
1013.4094 82059 81883 81644 81342 80987 80594 80177 79743 79280 78769 78191
1018.7126 77538 76816 76044 75244 74429 73607 72788 71984 71224 70546 69994
1024.0160 69605 69404 69396 69571 69899 70342 70853 71382 71877 72292 72594
1029.3192 72770 72836 72837 72831 72883 73050 73362 73816 74371 74950 75460
1034.6226 75828 76032 76121 76207 76421 76867 77584 78537 79637 80781 81882
1039.9258 82878 83740 84455 85029 85477 85824 86095 86304 86454 86542 86568
1045.2291 86541 86481 86406 86320 86217 86085 85919 85730 85539 85365 85212
1050.5323 85071 84922 84749 84551 84338 84132 83952 83815 83729 83696 83704
1055.8357 83734 83757 83742 83669 83531 83340 83120 82894 82677 82470 82265
1061.1389 82049 81812 81542 81231 80870 80456 79995 79502 78999 78504 78026
1066.4423 77553 77061 76516 75887 75152 74300 73335 72271 71131 69949 68765
1071.7455 67629 66605 65758 65154 64848 64879 65274 66045 67189 68683 70472
1077.0488 72460 74523 76526 78352 79919 81192 82176 82898 83403 83737 83947
1082.3521 84073 84145 84183 84196 84192 84176 84159 84148 84151 84170 84199
1087.6554 84222 84218 84177 84099 84003 83917 83861 83837 83826 83800 83741
1092.9586 83649 83543 83443 83361 83296 83236 83171 83095 83007 82910 82805
1098.2620 82695 82580 82461 82341 82219 82097 81978 81867 81770 81688 81616
1103.5652 81549 81479 81404 81323 81234 81130 81006 80858 80694 80529 80377
1108.8685 80248 80136 80024 79895 79736 79548 79341 79126 78911 78695 78475
1114.1718 78247 78009 77763 77506 77234 76941 76625 76287 75936 75581 75229
1119.4751 74880 74530 74175 73818 73462 73114 72779 72460 72155 71867 71596
1124.7783 71344 71112 70901 70716 70566 70460 70406 70401 70433 70484 70541
1130.0817 70604 70683 70792 70944 71140 71372 71630 71905 72191 72480 72763
1135.3849 73021 73238 73400 73503 73549 73545 73493 73387 73218 72974 72653
1140.6882 72261 71813 71325 70805 70249 69645 68978 68241 67434 66563 65637
1145.9915 64666 63659 62634 61617 60642 59748 58971 58343 57884 57599 57481
1151.2948 57511 57658 57885 58159 58451 58748 59046 59346 59648 59937 60192
1156.5980 60390 60514 60560 60532 60444 60314 60167 60036 59960 59976 60105
1161.9014 60354 60716 61188 61772 62478 63304 64234 65232 66260 67294 68335
1167.2046 69400 70503 71645 72798 73926 74991 75972 76864 77671 78399 79046
1172.5079 79608 80082 80471 80789 81051 81270 81450 81589 81681 81725 81722
1177.8112 81676 81589 81461 81294 81096 80884 80678 80493 80333 80196 80074
1183.1145 79966 79873 79802 79756 79731 79722 79717 79704 79673 79617 79537
1188.4177 79448 79370 79325 79324 79361 79420 79481 79531 79569 79601 79628
1193.7211 79645 79637 79593 79509 79391 79252 79106 78958 78812 78662 78503
1199.0243 78328 78128 77898 77634 77341 77029 76709 76392 76076 75753 75415
1204.3276 75055 74675 74287 73905 73539 73195 72870 72557 72251 71950 71653
1209.6309 71363 71083 70809 70538 70261 69974 69675 69367 69054 68741 68432
1214.9342 68130 67840 67566 67306 67058 66813 66557 66279 65969 65626 65252
1220.2374 64858 64460 64079 63735 63447 63223 63069 62989 62990 63084 63285
1225.5408 63595 64005 64494 65040 65626 66250 66919 67641 68417 69232 70059
1230.8440 70866 71632 72343 73002 73614 74183 74708 75185 75609 75978 76294
1236.1473 76559 76774 76944 77070 77163 77230 77282 77322 77346 77348 77319
1241.4506 77260 77182 77097 77015 76940 76864 76779 76680 76570 76455 76343
1246.7539 76235 76129 76017 75894 75757 75607 75446 75276 75097 74908 74707
1252.0571 74495 74275 74053 73833 73611 73382 73135 72867 72585 72300 72029
1257.3605 71777 71543 71320 71098 70875 70658 70461 70296 70169 70077 70012
1262.6637 69965 69933 69911 69893 69858 69773 69605 69348 69034 68740 68550
1267.9670 68516 68616 68762 68842 68768 68511 68101 67605 67087 66589 66123
1273.2703 65687 65281 64909 64576 64281 64014 63759 63508 63258 63016 62784
1278.5736 62561 62336 62096 61829 61523 61174 60781 60345 59870 59359 58817
1283.8768 58243 57633 56982 56279 55518 54702 53842 52962 52089 51246 50444
1289.1802 49687 48972 48303 47694 47172 46774 46541 46512 46711 47140 47768
1294.4834 48533 49352 50138 50809 51299 51565 51585 51356 50893 50224 49388
1299.7867 48428 47387 46300 45198 44107 43056 42078 41213 40500 39975 39668
1305.0900 39602 39796 40265 41018 42054 43360 44902 46628 48468 50355 52229
1310.3933 54045 55768 57371 58823 60089 61138 61949 62516 62849 62969 62895
1315.6965 62649 62253 61734 61116 60433 59725 59056 58508 58164 58078 58258
1320.9999 58675 59276 60014 60846 61740 62660 63564 64406 65139 65721 66127
1326.3031 66346 66376 66227 65909 65437 64825 64092 63266 62383 61489 60637
1331.6064 59876 59254 58801 58533 58441 58505 58697 58996 59381 59835 60326
1336.9097 60817 61267 61646 61935 62133 62268 62410 62652 63075 63719 64589
1342.2130 65658 66872 68152 69408 70559 71562 72415 73138 73756 74287 74746
1347.5162 75143 75485 75771 75992 76137 76205 76215 76201 76206 76267 76409
1352.8196 76642 76962 77353 77785 78220 78619 78956 79219 79412 79543 79625
1358.1228 79666 79673 79650 79599 79520 79414 79282 79117 78911 78656 78355
1363.4261 78028 77697 77375 77065 76769 76495 76253 76053 75891 75756 75632
1368.7294 75504 75369 75225 75074 74914 74745 74569 74386 74191 73969 73705
1374.0327 73395 73060 72735 72443 72182 71938 71693 71438 71171 70897 70622
1379.3359 70348 70072 69795 69517 69238 68957 68673 68382 68088 67801 67535
1384.6393 67298 67084 66872 66626 66311 65921 65500 65118 64807 64550 64309
1389.9425 64052 63767 63466 63177 62919 62690 62466 62205 61858 61393 60839
1395.2458 60287 59816 59438 59112 58773 58344 57753 56982 56114 55277 54531
1400.5491 53845 53154 52422 51652 50874 50098 49299 48418 47417 46347 45342
1405.8524 44520 43909 43468 43151 42950 42892 43022 43385 44008 44906 46077
1411.1556 47501 49146 50967 52914 54930 56958 58954 60896 62780 64597 66315
1416.4590 67877 69245 70433 71528 72663 73919 75176 76200 76917 77420 77825
1421.7622 78199 78572 78937 79259 79490 79601 79603 79526 79387 79193 78947
1427.0656 78663 78352 78017 77638 77173 76592 75914 75209 74527 73847 73094
1432.3688 72195 71141 70014 68944 68017 67245 66595 66054 65692 65626 65825
1437.6721 66120 66393 66608 66753 66803 66720 66469 66036 65434 64689 63839
1442.9753 62935 62054 61295 60755 60491 60510 60786 61287 61976 62786 63580
1448.2787 64193 64543 64666 64631 64484 64228 63851 63350 62756 62123 61500
1453.5819 60908 60344 59797 59253 58709 58206 57895 58027 58716 59741 60785
1458.8853 61673 62361 62870 63241 63515 63723 63886 64008 64078 64067 63920
1464.1885 63578 63048 62457 61956 61584 61288 61003 60692 60360 60035 59750
1469.4918 59518 59330 59159 58965 58672 58182 57477 56761 56260 55986 55830
1474.7950 55676 55434 55052 54559 54068 53681 53411 53212 53029 52823 52575
1480.0984 52278 51945 51598 51264 50965 50705 50477 50272 50089 49928 49787
1485.4016 49651 49491 49281 49025 48771 48572 48435 48310 48101 47726 47204
1490.7050 46672 46239 45913 45662 45470 45345 45309 45399 45674 46226 47138
1496.0082 48361 49669 50843 51864 52843 53858 54865 55737 56392 56855 57207
1501.3115 57520 57828 58126 58404 58663 58916 59178 59451 59709 59871 59790
1506.6147 59449 59143 59032 59036 59075 59122 59172 59216 59240 59225 59159
1511.9181 59049 58920 58804 58722 58680 58670 58676 58668 58586 58353 57965
1517.2213 57569 57322 57241 57266 57331 57379 57327 57042 56430 55710 55233
1522.5247 55038 54991 54985 54958 54864 54677 54415 54132 53873 53640 53407
1527.8279 53154 52898 52675 52511 52402 52330 52271 52206 52110 51939 51632
1533.1312 51166 50638 50221 49988 49889 49856 49849 49862 49900 49964 50028
1538.4344 49998 49687 48998 48246 47779 47532 47317 47056 46783 46560 46401
1543.7378 46261 46067 45769 45399 45052 44804 44664 44597 44566 44534 44463
1549.0410 44307 44044 43720 43446 43302 43284 43350 43444 43512 43490 43346
1554.3444 43146 43027 43057 43212 43451 43743 44067 44380 44536 44304 43949
1559.6476 43975 44264 44630 45011 45397 45788 46191 46607 47041 47497 47976
1564.9509 48479 48999 49524 50045 50555 51058 51570 52131 52795 53572 54354
1570.2542 55020 55572 56082 56618 57210 57851 58500 59114 59675 60218 60835
1575.5575 61652 62683 63679 64419 64954 65422 65908 66442 67022 67629 68239
1580.8607 68837 69418 69980 70522 71041 71534 72002 72441 72854 73243 73617
1586.1641 73988 74364 74750 75141 75523 75883 76206 76483 76714 76906 77071
1591.4674 77217 77351 77468 77564 77636 77685 77715 77732 77738 77726 77689
1596.7706 77617 77510 77371 77213 77051 76899 76768 76666 76596 76562 76562
1602.0740 76594 76652 76729 76820 76919 77025 77138 77255 77370 77474 77560
1607.3772 77625 77672 77705 77731 77749 77760 77764 77759 77741 77700 77622
1612.6805 77501 77347 77184 77035 76906 76771 76557 76159 75562 74966 74568
1617.9838 74356 74225 74101 73951 73779 73609 73470 73376 73323 73304 73328
1623.2871 73421 73602 73848 74127 74420 74732 75076 75473 75940 76469 77017
1628.5903 77538 78012 78444 78850 79242 79626 80000 80357 80695 81018 81341
1633.8937 81685 82067 82481 82853 83097 83244 83382 83557 83775 84027 84308
1639.1969 84618 84959 85330 85728 86137 86545 86939 87315 87675 88023 88366
1644.5002 88709 89054 89394 89697 89915 90027 90076 90124 90199 90298 90413
1649.8035 90534 90662 90796 90941 91106 91293 91443 91399 91228 91123 91088
1655.1068 91085 91097 91116 91137 91158 91179 91197 91216 91238 91266 91304
1660.4100 91348 91392 91422 91421 91380 91313 91254 91218 91200 91183 91159
1665.7134 91134 91120 91133 91178 91248 91316 91340 91288 91183 91082 91020
1671.0166 90999 91006 91027 91060 91107 91179 91289 91449 91646 91824 91934
1676.3199 91993 92046 92118 92216 92339 92482 92642 92814 92986 93149 93297
1681.6232 93431 93561 93702 93882 94125 94365 94435 94367 94289 94240 94216
1686.9265 94212 94225 94256 94300 94351 94400 94438 94467 94488 94505 94523
1692.2297 94543 94567 94595 94629 94674 94739 94837 94969 95095 95176 95225
1697.5331 95268 95324 95402 95519 95692 95892 96005 96009 96003 96026 96081
1702.8363 96160 96260 96374 96491 96595 96666 96691 96668 96615 96557 96513
1708.1396 96486 96470 96456 96436 96412 96391 96383 96392 96415 96446 96477
1713.4429 96494 96476 96407 96298 96182 96091 96027 95957 95805 95503 95114
1718.7462 94777 94538 94369 94238 94128 94039 93973 93933 93909 93887 93850
1724.0494 93791 93715 93632 93549 93473 93406 93353 93316 93295 93292 93305
1729.3528 93329 93356 93379 93396 93415 93444 93493 93565 93645 93674 93596
1734.6560 93463 93353 93280 93231 93195 93175 93179 93219 93295 93383 93426
1739.9594 93381 93272 93158 93082 93060 93088 93142 93184 93185 93144 93089
1745.2626 93045 93025 93031 93051 93068 93069 93054 93042 93047 93073 93104
1750.5659 93113 93076 92995 92896 92804 92723 92649 92574 92499 92433 92389
1755.8691 92379 92398 92424 92428 92403 92360 92322 92307 92321 92363 92415
1761.1725 92449 92435 92373 92296 92233 92195 92178 92173 92174 92175 92177
1766.4757 92178 92178 92175 92170 92168 92175 92193 92225 92272 92335 92412
1771.7791 92483 92520 92514 92488 92460 92435 92409 92376 92329 92273 92219
1777.0823 92183 92177 92206 92264 92339 92405 92436 92414 92345 92255 92171
1782.3856 92107 92066 92046 92044 92055 92069 92079 92081 92073 92059 92041
1787.6888 92024 92010 92002 92001 92008 92021 92038 92053 92057 92041 92009
1792.9922 91976 91956 91951 91955 91958 91947 91913 91857 91792 91733 91685
1798.2954 91645 91608 91568 91528 91496 91479 91474 91471 91454 91411 91345
1803.5988 91268 91196 91143 91112 91102 91100 91090 91063 91016 90960 90911
1808.9020 90885 90883 90898 90908 90895 90849 90781 90708 90642 90589 90548
1814.2053 90518 90501 90500 90514 90539 90560 90562 90534 90479 90409 90340
1819.5085 90283 90242 90215 90195 90177 90157 90139 90129 90137 90167 90215
1824.8119 90260 90273 90243 90184 90124 90084 90071 90082 90099 90090 90026
1830.1151 89922 89826 89772 89763 89781 89802 89807 89788 89757 89736 89742
1835.4185 89784 89848 89916 89964 89984 89981 89972 89971 89984 90007 90035
1840.7217 90059 90074 90079 90069 90040 89987 89917 89857 89839 89859 89891
1846.0250 89910 89904 89875 89835 89799 89773 89750 89719 89676 89630 89594
1851.3282 89578 89578 89583 89578 89560 89532 89503 89475 89447 89414 89372
1856.6316 89323 89270 89219 89172 89127 89077 89018 88945 88863 88786 88735
1861.9348 88732 88783 88876 88978 89048 89056 88993 88879 88753 88658 88619
1867.2382 88634 88677 88707 88694 88636 88558 88484 88421 88364 88302 88231
1872.5414 88156 88086 88029 87987 87948 87899 87827 87731 87623 87525 87456
1877.8447 87428 87431 87443 87438 87406 87355 87314 87309 87352 87429 87505
1883.1479 87541 87512 87424 87311 87216 87170 87179 87225 87283 87336 87382
1888.4513 87426 87470 87501 87501 87465 87408 87351 87312 87292 87278 87253
1893.7545 87206 87143 87080 87033 87006 86990 86974 86955 86935 86915 86890
1899.0579 86863 86848 86875 86964 87107 87252 87326 87272 87099 86880 86721
1904.3611 86704 86840 87069 87300 87459 87521 87507 87462 87418 87383 87350
1909.6644 87316 87289 87282 87298 87322 87334 87321 87291 87269 87275 87317
1914.9677 87380 87448 87516 87599 87717 87870 88014 88077 88022 87877 87712
1920.2710 87596 87577 87664 87825 87989 88083 88080 88014 87942 87906 87905
1925.5742 87914 87899 87843 87749 87644 87556 87503 87488 87507 87551 87614
1930.8776 87692 87779 87859 87914 87925 87886 87801 87686 87563 87450 87360
1936.1808 87296 87252 87218 87177 87118 87035 86942 86871 86866 86970 87208
1941.4841 87556 87918 88141 88105 87815 87391 86985 86718 86645 86735 86884
1946.7874 86969 86922 86767 86585 86452 86388 86354 86288 86169 86040 85988
1952.0907 86085 86336 86670 86975 87153 87155 86996 86740 86470 86271 86206
1957.3939 86302 86544 86872 87210 87487 87653 87678 87550 87280 86926 86596
1962.6973 86423 86500 86825 87287 87719 87983 88037 87949 87844 87822 87903
1968.0005 88038 88163 88238 88247 88166 87955 87576 87048 86467 85986 85743
1973.3038 85794 86079 86451 86759 86928 86990 87030 87093 87134 87042 86745
1978.6071 86286 85823 85530 85504 85715 86032 86288 86362 86222 85937 85642
1983.9104 85479 85531 85775 86089 86307 86304 86070 85720 85439 85374 85536
1989.2136 85791 85949 85871 85537 85057 84620 84387 84389 84530 84678 84751
1994.5170 84741 84688 84632 84588 84543 84488 84446 84473 84626 84922 85310
1999.8202 85693 85977 86124 86167 86181 86227 86315 86395 86392 86260 86009
2005.1235 85693 85380 85117 84917 84770 84663 84590 84547 84530 84538 84581
2010.4268 84685 84873 85140 85433 85672 85779 85727 85539 85267 84961 84659
2015.7301 84402 84246 84242 84387 84593 84710 84604 84238 83694 83134 82713
2021.0333 82505 82486 82571 82690 82821 82997 83252 83586 83947 84257 84449
2026.3367 84499 84421 84253 84031 83784 83531 83287 83062 82863 82695 82572
2031.6399 82521 82569 82716 82910 83053 83048 82865 82573 82311 82216 82340
2036.9432 82630 82967 83229 83349 83318 83149 82857 82466 82036 81669 81475
2042.2465 81505 81712 81966 82129 82128 81997 81848 81805 81930 82200 82521
2047.5498 82777 82870 82747 82408 81905 81335 80815 80450 80296 80341 80516
2052.8530 80717 80846 80857 80771 80648 80543 80467 80393 80287 80146 80004
2058.1563 79907 79875 79882 79868 79779 79600 79366 79136 78962 78866 78842
2063.4597 78860 78889 78906 78900 78873 78837 78802 78769 78724 78647 78525
2068.7629 78364 78188 78029 77908 77828 77781 77760 77763 77796 77852 77908
2074.0662 77931 77888 77771 77600 77413 77249 77132 77064 77030 77007 76972
2079.3694 76916 76844 76773 76727 76716 76733 76755 76755 76728 76690 76669
2084.6729 76685 76733 76787 76820 76828 76830 76858 76934 77052 77183 77287
2089.9761 77332 77305 77208 77060 76890 76732 76617 76567 76581 76638 76702
2095.2793 76738 76723 76650 76530 76383 76239 76128 76073 76084 76148 76236
2100.5825 76313 76351 76346 76313 76282 76270 76276 76278 76249 76177 76077
2105.8860 75984 75936 75948 76006 76076 76119 76115 76070 76009 75963 75954
2111.1892 75983 76037 76093 76136 76164 76190 76234 76309 76414 76534 76647
2116.4924 76739 76802 76837 76841 76812 76752 76671 76596 76554 76565 76631
2121.7957 76734 76848 76942 76997 77004 76963 76885 76786 76687 76609 76572
2127.0991 76593 76684 76851 77090 77386 77714 78042 78340 78582 78753 78851
2132.4023 78886 78876 78849 78831 78837 78866 78893 78888 78824 78699 78534
2137.7056 78371 78255 78227 78311 78508 78799 79152 79532 79916 80291 80646
2143.0088 80966 81214 81345 81325 81167 80932 80717 80598 80596 80660 80712
2148.3123 80693 80605 80505 80456 80483 80564 80656 80751 80881 81094 81403
2153.6155 81757 82059 82219 82195 81996 81652 81188 80636 80072 79631 79448
2158.9187 79559 79848 80121 80245 80242 80238 80337 80523 80668 80646 80450
2164.2219 80229 80190 80461 80996 81607 82074 82280 82252 82109 81967 81868
2169.5254 81782 81657 81480 81293 81166 81143 81214 81321 81394 81390 81312
2174.8286 81206 81139 81179 81359 81660 82001 82252 82287 82045 81581 81057
2180.1318 80678 80594 80830 81278 81749 82071 82170 82092 81958 81891 81951
2185.4351 82111 82281 82353 82257 81991 81623 81266 81041 81030 81254 81660
2190.7385 82135 82541 82760 82736 82491 82124 81762 81524 81483 81654 82000
2196.0417 82444 82887 83225 83376 83295 82996 82552 82074 81676 81439 81386
2201.3450 81490 81692 81932 82163 82363 82528 82667 82791 82914 83037 83147
2206.6482 83211 83192 83066 82840 82557 82277 82053 81920 81882 81922 82011
2211.9517 82109 82182 82213 82217 82240 82340 82546 82830 83106 83272 83263
2217.2549 83089 82828 82580 82423 82388 82470 82643 82871 83112 83311 83421
2222.5581 83416 83314 83166 83026 82922 82844 82761 82654 82525 82394 82281
2227.8613 82187 82107 82041 82003 82013 82082 82186 82281 82316 82264 82134
2233.1648 81965 81810 81708 81677 81709 81780 81860 81925 81959 81963 81944
2238.4680 81912 81873 81827 81769 81704 81649 81627 81656 81731 81822 81884
2243.7712 81890 81843 81780 81742 81747 81775 81782 81732 81622 81488 81383
2249.0745 81344 81376 81446 81503 81507 81443 81331 81211 81122 81087 81104
2254.3779 81159 81237 81332 81442 81557 81646 81676 81630 81521 81391 81280
2259.6812 81202 81139 81060 80957 80859 80809 80838 80930 81035 81087 81048
2264.9844 80924 80752 80584 80459 80399 80407 80474 80580 80697 80796 80850
2270.2876 80852 80805 80725 80628 80523 80415 80313 80229 80176 80155 80155
2275.5911 80152 80126 80069 79992 79917 79861 79827 79806 79784 79755 79722
2280.8943 79693 79670 79642 79594 79516 79413 79306 79217 79161 79137 79134
2286.1975 79138 79143 79148 79154 79157 79150 79123 79072 78998 78909 78815
2291.5007 78733 78681 78672 78711 78789 78882 78962 79011 79023 79007 78973
2296.8042 78930 78887 78855 78853 78891 78967 79057 79126 79151 79130 79086
2302.1074 79043 79012 78984 78939 78871 78797 78748 78747 78792 78856 78898
2307.4106 78894 78850 78796 78765 78774 78812 78851 78862 78834 78779 78722
2312.7139 78682 78661 78649 78631 78605 78582 78582 78611 78661 78708 78728
2318.0173 78711 78667 78615 78572 78538 78506 78471 78434 78405 78393 78401
2323.3206 78428 78467 78517 78572 78623 78662 78683 78687 78685 78686 78694
2328.6238 78702 78697 78674 78645 78637 78679 78782 78920 79039 79078 79002
2333.9270 78822 78594 78393 78284 78292 78386 78500 78571 78580 78549 78514
2339.2305 78495 78488 78473 78440 78400 78377 78380 78396 78391 78343 78259
2344.5337 78172 78113 78092 78087 78072 78034 77983 77932 77894 77866 77845
2349.8369 77824 77807 77812 77865 77982 78154 78338 78487 78565 78572 78543
2355.1401 78529 78566 78663 78802 78941 79038 79060 78995 78869 78738 78669
2360.4436 78706 78836 78997 79109 79116 79016 78854 78690 78568 78500 78470
2365.7468 78457 78438 78390 78295 78137 77918 77663 77421 77251 77191 77249
2371.0500 77398 77582 77739 77819 77801 77694 77530 77352 77197 77086 77020
2376.3533 76984 76957 76922 76878 76834 76804 76800 76821 76855 76884 76894
2381.6567 76876 76835 76779 76722 76671 76632 76603 76584 76572 76568 76572
2386.9600 76584 76603 76624 76641 76647 76640 76624 76604 76591 76589 76599
2392.2632 76618 76640 76657 76668 76672 76672 76674 76682 76699 76722 76745
2397.5664 76760 76761 76752 76741 76739 76751 76773 76793 76799 76782 76743
2402.8699 76691 76640 76601 76584 76588 76606 76629 76649 76661 76670 76680
2408.1731 76695 76713 76728 76734 76732 76730 76736 76757 76791 76831 76867
2413.4763 76892 76907 76915 76922 76932 76944 76954 76955 76948 76936 76930
2418.7795 76938 76967 77012 77064 77110 77140 77149 77140 77122 77104 77090
2424.0830 77082 77072 77056 77033 77010 77000 77019 77073 77154 77242 77313
2429.3862 77352 77355 77337 77314 77302 77311 77337 77376 77416 77444 77450
2434.6895 77428 77380 77320 77270 77251 77273 77332 77409 77485 77544 77581
2439.9927 77603 77620 77643 77674 77710 77742 77759 77754 77725 77682 77642
2445.2961 77627 77652 77719 77815 77911 77981 78008 77994 77956 77919 77901
2450.5994 77905 77924 77944 77954 77955 77951 77950 77958 77975 77999 78026
2455.9026 78052 78077 78102 78127 78149 78167 78176 78176 78172 78170 78175
2461.2058 78188 78205 78223 78236 78244 78250 78255 78261 78265 78268 78267
2466.5093 78266 78265 78265 78266 78265 78265 78267 78277 78296 78326 78360
2471.8125 78393 78421 78441 78456 78469 78484 78500 78516 78526 78521 78495
2477.1157 78451 78395 78344 78313 78313 78341 78381 78419 78443 78455 78465
2482.4189 78482 78507 78532 78544 78537 78516 78490 78470 78462 78461 78460
2487.7224 78455 78446 78438 78439 78453 78480 78518 78559 78595 78617 78620
2493.0256 78606 78583 78564 78559 78569 78589 78610 78626 78634 78638 78644
2498.3289 78654 78672 78698 78737 78790 78855 78923 78981 79017 79028 79017
2503.6321 78996 78976 78967 78968 78972 78971 78957 78930 78899 78873 78861
2508.9355 78867 78892 78934 78990 79057 79124 79177 79200 79188 79152 79115
2514.2388 79097 79106 79135 79168 79193 79211 79235 79276 79334 79398 79448
2519.5420 79475 79479 79470 79459 79452 79442 79418 79374 79316 79260 79230
2524.8452 79241 79295 79374 79449 79494 79494 79455 79399 79349 79320 79316
2530.1487 79329 79347 79364 79375 79380 79375 79356 79321 79273 79223 79186
2535.4519 79173 79186 79218 79252 79273 79276 79265 79252 79254 79280 79327
2540.7551 79383 79433 79459 79454 79423 79379 79338 79312 79304 79310 79319
2546.0583 79322 79316 79303 79289 79281 79282 79293 79311 79336 79367 79401
2551.3618 79434 79463 79485 79505 79532 79577 79644 79724 79802 79860 79892
2556.6650 79906 79914 79929 79953 79974 79980 79962 79926 79887 79867 79877
2561.9683 79919 79981 80044 80092 80120 80133 80140 80151 80166 80179 80183
2567.2715 80178 80171 80175 80199 80242 80295 80342 80369 80373 80356 80328
2572.5750 80300 80283 80285 80308 80349 80402 80454 80496 80524 80541 80551
2577.8782 80561 80572 80580 80582 80575 80564 80554 80549 80548 80549 80552
2583.1814 80563 80588 80630 80685 80741 80789 80828 80864 80907 80959 81018
2588.4849 81071 81111 81135 81144 81142 81130 81112 81094 81090 81110 81160
2593.7881 81231 81307 81369 81406 81418 81416 81414 81426 81456 81503 81557
2599.0913 81606 81639 81652 81649 81637 81628 81632 81656 81702 81762 81821
2604.3945 81862 81867 81836 81781 81731 81708 81725 81773 81832 81882 81914
2609.6980 81933 81951 81974 82003 82031 82054 82068 82075 82079 82085 82095
2615.0012 82110 82130 82153 82175 82191 82199 82200 82199 82198 82199 82197
2620.3044 82188 82170 82145 82120 82103 82101 82118 82148 82181 82203 82203
2625.6077 82180 82144 82113 82102 82120 82159 82205 82241 82259 82261 82252
2630.9111 82238 82224 82211 82200 82191 82186 82186 82191 82201 82211 82215
2636.2144 82208 82187 82153 82114 82081 82061 82055 82057 82056 82047 82028
2641.5176 82002 81973 81945 81921 81903 81892 81887 81887 81883 81871 81846
2646.8208 81810 81769 81726 81688 81654 81626 81604 81588 81575 81562 81545
2652.1243 81524 81500 81477 81461 81452 81447 81437 81417 81386 81349 81317
2657.4275 81298 81296 81301 81302 81289 81259 81221 81192 81182 81194 81218
2662.7307 81239 81245 81235 81215 81199 81194 81203 81221 81243 81267 81290
2668.0339 81310 81327 81338 81344 81347 81351 81357 81362 81363 81354 81336
2673.3374 81315 81298 81294 81306 81329 81354 81369 81370 81359 81346 81343
2678.6406 81353 81373 81390 81392 81371 81333 81291 81261 81253 81270 81305
2683.9438 81342 81367 81371 81353 81320 81283 81251 81227 81206 81181 81147
2689.2471 81105 81062 81025 81000 80986 80981 80978 80975 80972 80969 80968
2694.5505 80969 80970 80969 80963 80952 80935 80911 80884 80855 80829 80811
2699.8538 80804 80808 80819 80831 80842 80845 80839 80823 80796 80761 80724
2705.1570 80692 80670 80663 80666 80676 80685 80691 80696 80702 80711 80723
2710.4602 80735 80745 80751 80752 80749 80741 80724 80700 80669 80639 80616
2715.7637 80607 80612 80627 80648 80667 80679 80682 80675 80657 80626 80586
2721.0669 80540 80500 80473 80466 80476 80495 80509 80510 80495 80468 80435
2726.3701 80402 80372 80345 80322 80304 80293 80288 80287 80285 80282 80276
2731.6733 80271 80268 80267 80263 80253 80234 80210 80187 80171 80164 80166
2736.9768 80176 80192 80212 80236 80260 80284 80307 80330 80355 80384 80416
2742.2800 80449 80476 80494 80501 80501 80497 80495 80499 80512 80534 80562
2747.5833 80591 80617 80635 80644 80650 80657 80672 80700 80739 80785 80829
2752.8865 80865 80891 80911 80933 80965 81010 81065 81117 81155 81172 81168
2758.1899 81154 81140 81135 81142 81159 81180 81200 81220 81240 81260 81281
2763.4932 81302 81321 81340 81361 81386 81414 81439 81452 81445 81420 81384
2768.7964 81353 81336 81337 81349 81359 81359 81343 81314 81274 81231 81189
2774.0996 81155 81138 81143 81168 81208 81250 81284 81306 81316 81318 81313
2779.4031 81296 81263 81216 81161 81114 81088 81086 81101 81118 81122 81109
2784.7063 81090 81077 81082 81103 81125 81133 81116 81079 81032 80993 80971
2790.0095 80969 80981 81003 81027 81050 81069 81080 81082 81075 81063 81050
2795.3127 81038 81028 81019 81011 81004 80999 80997 80996 80991 80983 80974
2800.6162 80968 80970 80984 81007 81036 81064 81085 81094 81084 81056 81013
2805.9194 80965 80925 80904 80904 80916 80927 80923 80898 80859 80820 80794
2811.2227 80787 80796 80812 80827 80840 80854 80870 80886 80892 80881 80849
2816.5259 80803 80756 80722 80703 80696 80691 80679 80658 80633 80610 80592
2821.8293 80579 80568 80560 80555 80556 80563 80572 80576 80565 80534 80482
2827.1326 80418 80354 80303 80271 80257 80250 80239 80217 80185 80151 80120
2832.4358 80094 80070 80043 80010 79971 79931 79893 79858 79825 79796 79770
2837.7390 79748 79728 79709 79689 79667 79646 79630 79622 79621 79624 79626
2843.0425 79625 79620 79609 79594 79573 79547 79516 79485 79461 79449 79448
2848.3457 79454 79459 79453 79431 79394 79353 79319 79302 79304 79319 79336
2853.6489 79343 79333 79306 79271 79237 79216 79212 79225 79250 79281 79308
2858.9521 79323 79325 79315 79299 79279 79257 79232 79204 79177 79159 79153
2864.2556 79159 79171 79182 79189 79193 79196 79200 79202 79200 79191 79181
2869.5588 79178 79187 79210 79239 79262 79271 79261 79238 79208 79180 79163
2874.8621 79157 79162 79173 79185 79194 79199 79200 79200 79200 79199 79195
2880.1653 79185 79168 79146 79122 79102 79087 79076 79067 79053 79033 79004
2885.4688 78965 78919 78868 78817 78771 78735 78712 78705 78711 78722 78729
2890.7720 78723 78702 78669 78636 78612 78602 78602 78601 78590 78563 78524
2896.0752 78485 78453 78433 78422 78412 78396 78367 78325 78273 78216 78159
2901.3784 78104 78049 77992 77934 77877 77825 77783 77750 77723 77696 77666
2906.6819 77631 77590 77543 77489 77426 77358 77290 77226 77169 77119 77066
2911.9851 77005 76931 76844 76753 76662 76574 76486 76388 76275 76146 76015
2917.2883 75897 75808 75749 75709 75669 75611 75527 75421 75303 75189 75086
2922.5916 74999 74925 74861 74804 74753 74711 74680 74659 74644 74625 74592
2927.8950 74545 74492 74446 74414 74396 74386 74377 74367 74360 74360 74364
2933.1982 74362 74344 74311 74272 74244 74234 74240 74247 74238 74200 74133
2938.5015 74043 73942 73842 73751 73678 73626 73589 73561 73530 73487 73423
2943.8047 73334 73221 73090 72956 72839 72758 72725 72736 72774 72814 72833
2949.1082 72819 72770 72694 72604 72515 72440 72385 72349 72324 72300 72270
2954.4114 72233 72194 72159 72134 72123 72123 72127 72127 72117 72092 72055
2959.7146 72010 71965 71927 71901 71895 71913 71955 72016 72087 72160 72233
2965.0178 72313 72410 72536 72695 72879 73073 73261 73432 73582 73717 73843
2970.3213 73966 74086 74198 74296 74373 74426 74458 74476 74486 74495 74509
2975.6245 74529 74552 74572 74581 74569 74528 74458 74364 74256 74142 74030
2980.9277 73927 73840 73773 73730 73708 73701 73700 73695 73679 73648 73606
2986.2310 73557 73510 73471 73443 73425 73413 73399 73376 73336 73276 73202
2991.5344 73123 73055 73010 72997 73015 73052 73094 73124 73131 73114 73081
2996.8376 73047 73024 73017 73022 73029 73024 73002 72963 72920 72884 72864
3002.1409 72860 72866 72869 72865 72850 72831 72817 72812 72819 72837 72866
3007.4441 72906 72958 73023 73092 73160 73218 73266 73309 73356 73410 73467
3012.7476 73521 73565 73599 73629 73662 73700 73740 73774 73792 73791 73773
3018.0508 73746 73717 73692 73676 73669 73672 73684 73704 73725 73738 73733
3023.3540 73702 73641 73557 73465 73384 73330 73308 73312 73326 73336 73332
3028.6572 73313 73288 73261 73237 73218 73207 73210 73235 73284 73353 73426
3033.9607 73490 73540 73578 73615 73660 73711 73761 73802 73828 73841 73850
3039.2639 73865 73891 73928 73973 74022 74070 74115 74156 74198 74244 74299
3044.5671 74361 74427 74492 74550 74606 74664 74726 74789 74837 74858 74845
3049.8704 74808 74770 74753 74766 74805 74853 74889 74904 74896 74873 74843
3055.1738 74810 74774 74738 74706 74685 74678 74684 74694 74700 74699 74697
3060.4771 74704 74728 74766 74807 74834 74835 74806 74759 74710 74674 74657
3065.7803 74658 74668 74681 74697 74720 74757 74813 74888 74977 75075 75178
3071.0835 75285 75395 75505 75611 75706 75783 75837 75868 75881 75887 75897
3076.3870 75921 75963 76016 76067 76102 76112 76100 76078 76061 76055 76059
3081.6902 76063 76056 76037 76013 75992 75980 75979 75984 75997 76020 76063
3086.9934 76130 76214 76305 76389 76457 76512 76561 76613 76671 76737 76813
3092.2966 76897 76992 77090 77185 77267 77333 77389 77448 77518 77602 77690
3097.6001 77770 77832 77878 77912 77946 77986 78035 78093 78159 78231 78312
3102.9033 78403 78504 78610 78715 78811 78889 78945 78977 78986 78980 78971
3108.2065 78973 78997 79043 79104 79171 79234 79294 79361 79441 79535 79632
3113.5098 79715 79772 79806 79836 79888 79981 80119 80284 80449 80585 80676
3118.8132 80722 80743 80763 80805 80879 80981 81095 81205 81302 81388 81470
3124.1165 81556 81647 81741 81831 81912 81982 82038 82078 82105 82126 82153
3129.4197 82196 82262 82348 82444 82543 82642 82747 82863 82990 83122 83248
3134.7229 83359 83453 83534 83607 83671 83725 83761 83779 83785 83793 83816
3140.0264 83864 83938 84034 84144 84261 84382 84507 84635 84763 84884 84988
3145.3296 85069 85125 85166 85204 85256 85334 85439 85566 85702 85833 85945
3150.6328 86028 86077 86094 86092 86095 86126 86201 86319 86461 86606 86736
3155.9360 86847 86946 87042 87139 87235 87329 87422 87525 87645 87778 87909
3161.2395 88014 88075 88096 88103 88132 88212 88345 88510 88666 88779 88838
3166.5427 88855 88861 88885 88942 89028 89131 89237 89342 89444 89546 89644
3171.8459 89734 89810 89874 89931 89992 90061 90139 90222 90302 90378 90447
3177.1492 90510 90571 90630 90689 90750 90810 90867 90918 90964 91010 91068
3182.4526 91146 91247 91366 91489 91602 91697 91773 91833 91886 91934 91978
3187.7559 92017 92055 92097 92152 92222 92307 92395 92471 92524 92550 92557
3193.0591 92562 92586 92638 92719 92816 92913 92997 93066 93127 93191 93262
3198.3623 93338 93404 93450 93470 93471 93467 93476 93510 93574 93663 93764
3203.6658 93866 93957 94026 94069 94085 94079 94059 94038 94027 94035 94067
3208.9690 94123 94197 94281 94362 94433 94486 94524 94554 94586 94629 94687
3214.2722 94754 94825 94893 94957 95016 95070 95113 95139 95145 95137 95128
3219.5754 95130 95147 95171 95191 95196 95190 95183 95189 95219 95269 95333
3224.8789 95401 95467 95528 95581 95623 95655 95681 95710 95751 95804 95865
3230.1821 95922 95966 95992 96000 95992 95973 95945 95915 95894 95892 95918
3235.4854 95970 96037 96101 96145 96159 96149 96131 96126 96151 96210 96294
3240.7886 96383 96455 96495 96496 96466 96423 96385 96367 96374 96400 96433
3246.0920 96463 96483 96494 96500 96506 96512 96516 96518 96514 96510 96508
3251.3953 96515 96536 96571 96615 96660 96694 96711 96712 96706 96707 96721
3256.6985 96750 96782 96805 96810 96800 96785 96778 96785 96802 96819 96825
3262.0017 96819 96809 96805 96813 96831 96850 96862 96864 96858 96852 96854
3267.3052 96871 96902 96944 96985 97009 97004 96965 96899 96826 96768 96744
3272.6084 96760 96810 96881 96953 97013 97048 97058 97049 97033 97023 97026
3277.9116 97036 97043 97033 97003 96964 96931 96920 96934 96966 97002 97028
3283.2148 97038 97033 97022 97016 97021 97040 97068 97096 97119 97137 97157
3288.5183 97185 97222 97260 97288 97297 97287 97269 97254 97249 97252 97257
3293.8215 97262 97269 97284 97312 97349 97391 97431 97465 97490 97508 97520
3299.1248 97529 97539 97555 97574 97587 97584 97559 97520 97486 97479 97512
3304.4280 97577 97652 97712 97740 97731 97696 97652 97617 97602 97617 97659
3309.7314 97720 97788 97846 97884 97901 97904 97903 97905 97909 97911 97906
3315.0347 97897 97891 97897 97919 97954 97990 98019 98036 98048 98060 98075
3320.3379 98092 98106 98112 98113 98111 98110 98106 98096 98077 98052 98027
3325.6411 98006 97994 97988 97988 97994 98008 98026 98044 98057 98063 98067
3330.9446 98077 98102 98142 98193 98244 98282 98298 98290 98263 98230 98209
3336.2478 98210 98232 98263 98287 98293 98285 98276 98281 98306 98346 98385
3341.5510 98407 98405 98382 98349 98316 98294 98286 98290 98304 98323 98347
3346.8542 98378 98417 98465 98516 98561 98591 98602 98593 98571 98539 98502
3352.1577 98460 98419 98387 98373 98383 98416 98461 98507 98545 98572 98594
3357.4609 98614 98635 98656 98673 98681 98677 98662 98636 98604 98572 98549
3362.7642 98540 98545 98562 98586 98611 98636 98662 98691 98718 98738 98743
3368.0674 98734 98714 98694 98681 98679 98688 98704 98725 98748 98768 98776
3373.3708 98768 98743 98712 98691 98689 98709 98742 98775 98797 98807 98806
3378.6741 98796 98779 98753 98725 98703 98701 98725 98768 98816 98847 98853
3383.9773 98836 98814 98803 98813 98838 98865 98884 98891 98893 98901 98920
3389.2805 98947 98974 98992 99000 99002 99003 99006 99010 99007 98993 98969
3394.5840 98937 98904 98875 98852 98832 98814 98795 98776 98758 98743 98731
3399.8872 98723 98718 98719 98727 98743 98764 98784 98800 98814 98831 98858
3405.1904 98898 98945 98984 99002 98992 98957 98913 98877 98863 98870 98889
3410.4937 98903 98899 98875 98839 98808 98791 98791 98799 98806 98808 98809
3415.7971 98817 98836 98861 98878 98876 98850 98806 98759 98721 98703 98703
3421.1003 98716 98732 98743 98744 98729 98702 98669 98646 98646 98674 98724
3426.4036 98775 98803 98796 98754 98698 98648 98620 98616 98626 98633 98626
3431.7068 98603 98567 98528 98494 98476 98480 98506 98548 98592 98622 98627
3437.0103 98604 98562 98513 98469 98439 98424 98423 98427 98428 98419 98400
3442.3135 98379 98366 98369 98388 98413 98433 98440 98437 98432 98433 98442
3447.6167 98452 98456 98447 98426 98394 98351 98298 98234 98167 98106 98063
3452.9199 98042 98045 98063 98088 98117 98144 98168 98185 98188 98174 98145
3458.2234 98107 98074 98060 98075 98114 98160 98188 98171 98100 97991 97879
3463.5266 97806 97790 97825 97882 97923 97925 97885 97823 97764 97725 97704
3468.8298 97694 97686 97679 97676 97682 97695 97706 97702 97674 97622 97554
3474.1331 97488 97438 97411 97404 97408 97412 97411 97405 97397 97394 97398
3479.4365 97410 97426 97438 97438 97421 97388 97344 97301 97266 97240 97220
3484.7397 97201 97181 97164 97159 97173 97202 97235 97252 97247 97222 97193
3490.0430 97174 97170 97170 97159 97125 97073 97018 96980 96968 96982 97008
3495.3462 97033 97048 97050 97040 97017 96980 96931 96876 96831 96809 96815
3500.6497 96842 96874 96893 96890 96872 96855 96853 96870 96897 96917 96920
3505.9529 96900 96860 96806 96742 96672 96597 96525 96465 96428 96416 96421
3511.2561 96432 96440 96439 96433 96428 96430 96440 96456 96473 96484 96484
3516.5593 96470 96444 96412 96387 96386 96414 96465 96517 96544 96529 96471
3521.8628 96386 96304 96255 96252 96284 96328 96362 96376 96369 96351 96333
3527.1660 96324 96325 96334 96347 96364 96386 96413 96442 96467 96479 96475
3532.4692 96457 96430 96401 96370 96333 96288 96237 96192 96171 96181 96220
3537.7725 96269 96308 96323 96314 96294 96278 96276 96284 96290 96282 96259
3543.0759 96230 96209 96207 96217 96223 96211 96176 96128 96086 96063 96063
3548.3792 96080 96109 96144 96184 96228 96274 96317 96350 96369 96369 96348
3553.6824 96307 96249 96179 96107 96042 95995 95970 95966 95975 95991 96008
3558.9856 96026 96050 96089 96148 96226 96310 96378 96403 96368 96274 96144
3564.2891 96013 95919 95898 95969 96121 96298 96424 96449 96379 96258 96128
3569.5923 96021 95951 95920 95923 95951 95997 96060 96134 96204 96245 96232
3574.8955 96159 96046 95934 95858 95835 95857 95897 95936 95964 95988 96014
3580.1990 96043 96071 96090 96099 96100 96089 96066 96028 95979 95930 95900
3585.5022 95907 95962 96058 96161 96234 96256 96232 96184 96129 96077 96034
3590.8054 96003 95991 96004 96042 96097 96148 96176 96172 96145 96116 96102
3596.1086 96105 96114 96114 96102 96086 96079 96087 96098 96088 96040 95961
3601.4121 95875 95814 95789 95796 95821 95857 95910 95989 96102 96236 96362
3606.7153 96446 96472 96444 96385 96311 96228 96134 96032 95931 95847 95802
3612.0186 95818 95903 96029 96141 96192 96170 96094 96002 95928 95899 95922
3617.3218 95986 96064 96130 96169 96187 96195 96195 96175 96126 96044 95937
3622.6252 95823 95722 95653 95627 95639 95676 95718 95753 95783 95822 95896
3627.9285 96030 96211 96347 96357 96270 96149 96022 95892 95756 95622 95509
3633.2317 95442 95435 95474 95529 95583 95631 95681 95735 95788 95823 95824
3638.5349 95791 95738 95685 95647 95629 95629 95638 95648 95650 95641 95623
3643.8384 95598 95576 95566 95585 95647 95756 95888 95999 96064 96107 96184
3649.1416 96328 96497 96575 96475 96236 95960 95723 95557 95465 95439 95470
3654.4448 95550 95667 95791 95870 95869 95804 95724 95665 95636 95629 95625
3659.7480 95605 95564 95512 95469 95446 95445 95457 95470 95478 95486 95496
3665.0515 95510 95524 95535 95544 95559 95598 95679 95819 96021 96248 96423
3670.3547 96465 96372 96209 96036 95881 95753 95652 95581 95549 95570 95621
3675.6580 95639 95610 95565 95531 95518 95528 95557 95588 95606 95608 95609
3680.9612 95629 95677 95746 95811 95844 95821 95744 95635 95530 95457 95427
3686.2646 95440 95496 95591 95710 95820 95888 95913 95914 95904 95886 95856
3691.5679 95815 95773 95742 95730 95740 95762 95782 95779 95742 95677 95605
3696.8711 95551 95528 95536 95561 95590 95619 95655 95711 95792 95880 95940
3702.1743 95942 95890 95810 95723 95647 95589 95552 95531 95518 95504 95489
3707.4778 95482 95496 95546 95632 95733 95829 95914 96001 96098 96188 96231
3712.7810 96205 96118 95990 95837 95681 95544 95448 95406 95411 95449 95507
3718.0842 95571 95633 95694 95761 95842 95935 96026 96081 96064 95973 95852
3723.3875 95754 95709 95718 95765 95817 95843 95832 95801 95779 95779 95800
3728.6909 95834 95870 95906 95939 95963 95967 95941 95897 95871 95904 96026
3733.9941 96250 96537 96769 96805 96629 96353 96088 95885 95753 95680 95649
3739.2974 95644 95647 95637 95594 95511 95393 95258 95125 95040 95100 95407
3744.6006 95831 96084 96130 96064 95949 95817 95688 95591 95562 95611 95698
3749.9041 95767 95799 95814 95838 95871 95877 95832 95751 95657 95574 95513
3755.2073 95483 95482 95497 95513 95523 95529 95540 95554 95560 95543 95502
3760.5105 95454 95416 95401 95411 95443 95491 95548 95608 95664 95702 95704
3765.8137 95659 95577 95476 95372 95278 95204 95166 95183 95249 95330 95388
3771.1172 95412 95410 95392 95366 95338 95314 95304 95314 95346 95389 95429
3776.4204 95452 95456 95449 95444 95450 95464 95467 95448 95415 95383 95364
3781.7236 95361 95367 95376 95383 95390 95398 95407 95407 95393 95366 95333
3787.0269 95305 95286 95279 95283 95295 95313 95333 95348 95350 95335 95307
3792.3303 95276 95256 95253 95262 95274 95279 95273 95263 95263 95279 95303
3797.6335 95319 95316 95297 95272 95264 95312 95453 95673 95855 95892 95796
3802.9368 95638 95471 95323 95210 95144 95141 95215 95350 95482 95541 95528
3808.2400 95485 95451 95437 95439 95438 95414 95357 95275 95187 95110 95060
3813.5435 95040 95060 95134 95279 95477 95647 95706 95657 95553 95436 95326
3818.8467 95240 95201 95247 95411 95657 95850 95902 95839 95716 95572 95432
3824.1499 95314 95233 95198 95210 95256 95308 95335 95320 95272 95211 95164
3829.4531 95158 95213 95329 95466 95550 95533 95436 95315 95220 95180 95195
3834.7566 95242 95288 95323 95363 95433 95544 95667 95751 95773 95751 95710
3840.0598 95660 95601 95534 95474 95442 95454 95508 95574 95603 95567 95476
3845.3630 95364 95265 95201 95182 95202 95244 95288 95317 95326 95322 95321
3850.6663 95337 95387 95485 95638 95827 95964 95945 95786 95591 95423 95297
3855.9697 95215 95177 95178 95207 95246 95279 95304 95322 95336 95342 95333
3861.2729 95299 95248 95197 95168 95179 95239 95339 95436 95474 95439 95355
3866.5762 95256 95163 95091 95059 95099 95241 95455 95624 95663 95599 95495
3871.8794 95393 95324 95305 95340 95397 95424 95396 95330 95254 95189 95141
3877.1829 95110 95096 95108 95160 95265 95408 95528 95559 95498 95393 95289
3882.4861 95208 95149 95107 95077 95070 95107 95196 95305 95382 95398 95357
3887.7893 95277 95179 95086 95016 94990 95016 95084 95157 95199 95202 95183
3893.0925 95158 95134 95111 95088 95071 95067 95080 95107 95143 95176 95202
3898.3960 95223 95244 95271 95297 95316 95318 95302 95270 95235 95216 95229
3903.6992 95285 95374 95468 95529 95534 95484 95396 95295 95199 95120 95065
3909.0024 95032 95014 95006 95006 95013 95028 95047 95063 95070 95066 95062
3914.3057 95071 95110 95184 95278 95356 95379 95336 95255 95172 95113 95085
3919.6091 95080 95080 95070 95049 95026 95014 95025 95064 95129 95205 95266
3924.9124 95291 95277 95239 95200 95178 95183 95212 95247 95262 95240 95183
3930.2156 95114 95064 95057 95095 95157 95211 95239 95237 95216 95185 95148
3935.5188 95106 95060 95017 94987 94979 94995 95025 95058 95085 95105 95125
3940.8223 95148 95171 95181 95162 95108 95032 94956 94897 94862 94850 94859
3946.1255 94892 94950 95030 95121 95204 95258 95274 95255 95215 95171 95136
3951.4287 95113 95097 95085 95073 95063 95052 95043 95034 95024 95011 94995
3956.7319 94973 94946 94915 94884 94861 94850 94857 94884 94929 94983 95035
3962.0354 95072 95089 95089 95081 95076 95079 95094 95114 95131 95133 95114
3967.3386 95075 95022 94969 94931 94913 94911 94917 94920 94919 94919 94928
3972.6418 94951 94984 95016 95037 95041 95029 95008 94984 94959 94935 94916
3977.9451 94907 94916 94943 94980 95011 95023 95012 94985 94960 94950 94961
3983.2485 94988 95022 95055 95077 95085 95074 95044 95002 94956 94917 94892
3988.5518 94879 94876 94881 94899 94938 94998 95071 95141 95192 95217 95218
3993.8550 95203 95179 95150 95116 95076 95037 95005 94987 94983 94983 94978
3999.1582 94960 94930 94899
##END= 
