##TITLE= STDACIDOSALICILICO
##JCAMP-DX= 4.24
##DATA TYPE= INFRARED SPECTRUM
##ORIGIN= JASCO
##OWNER= 
##DATE= 22/03/30
##TIME= 18:39:04
##SPECTROMETER/DATA SYSTEM= 
##RESOLUTION= 
##DELTAX=   0.48211674
##XUNITS= 1/CM
##YUNITS= TRANSMITTANCE
##XFACTOR= 1.00000
##YFACTOR= 1E-005
##FIRSTX=   599.7532
##LASTX=  4000.1226
##NPOINTS=     7054
##FIRSTY=      0.63105
##MAXY=      0.94999
##MINY=      0.45748
##XYDATA= (X++(Y..Y))
599.7532 63105 63447 63886 64348 64773 65136 65452 65754 66061 66370 66646
605.0565 66847 66946 66947 66894 66847 66861 66962 67138 67343 67525 67642
610.3598 67681 67650 67578 67496 67442 67444 67517 67647 67791 67894 67913
615.6631 67844 67723 67610 67547 67530 67512 67435 67277 67061 66842 66678
620.9664 66600 66592 66600 66553 66403 66147 65827 65511 65259 65091 64981
626.2697 64876 64730 64537 64326 64146 64033 63989 63983 63965 63895 63764
631.5729 63595 63428 63284 63146 62960 62663 62228 61687 61124 60630 60258
636.8762 59999 59795 59579 59305 58956 58537 58068 57581 57117 56717 56413
642.1795 56208 56074 55964 55839 55680 55486 55259 54993 54676 54309 53921
647.4828 53566 53301 53146 53063 52961 52745 52355 51798 51135 50455 49837
652.7861 49322 48909 48558 48221 47859 47460 47038 46626 46260 45973 45792
658.0894 45748 45880 46228 46824 47684 48800 50141 51650 53242 54817 56277
663.3926 57539 58555 59317 59866 60281 60656 61103 61782 62935 64728 66452
668.6959 66797 66166 65481 64980 64592 64202 63722 63122 62440 61758 61164
673.9992 60709 60396 60189 60026 59850 59623 59337 59010 58669 58334 58003
679.3025 57653 57246 56748 56147 55467 54766 54121 53603 53239 53000 52805
684.6058 52563 52219 51790 51350 50985 50745 50612 50512 50363 50125 49828
689.9091 49549 49373 49347 49466 49674 49893 50062 50169 50253 50392 50666
695.2123 51120 51739 52446 53134 53709 54133 54439 54721 55102 55690 56544
700.5156 57654 58936 60253 61453 62425 63152 63728 64336 65177 66378 67928
705.8189 69679 71399 72878 74015 74841 75485 76092 76748 77446 78109 78643
711.1222 79002 79218 79372 79549 79787 80065 80328 80523 80625 80640 80585
716.4255 80483 80355 80223 80116 80056 80047 80073 80104 80112 80087 80039
721.7288 79981 79912 79816 79676 79488 79265 79036 78824 78638 78470 78301
727.0320 78123 77939 77759 77589 77418 77222 76982 76704 76426 76200 76060
732.3353 76002 75976 75913 75762 75514 75200 74875 74593 74387 74273 74246
737.6386 74290 74376 74468 74533 74548 74502 74399 74254 74094 73951 73852
742.9419 73799 73764 73691 73522 73231 72829 72351 71817 71215 70497 69610
748.2452 68511 67183 65629 63864 61926 59875 57790 55759 53867 52180 50736
753.5485 49548 48612 47923 47484 47320 47476 48013 48997 50481 52470 54887
758.8517 57571 60346 63111 65868 68687 71635 74728 77892 80972 83782 86179
764.1550 88101 89558 90607 91320 91762 91973 91958 91695 91158 90348 89307
769.4583 88130 86936 85837 84897 84112 83414 82714 81933 81043 80070 79072
774.7616 78112 77231 76442 75733 75079 74451 73822 73170 72481 71755 70997
780.0649 70218 69426 68623 67810 67001 66234 65574 65100 64884 64968 65352
785.3682 66010 66902 67988 69231 70582 71970 73311 74531 75597 76521 77347
790.6714 78118 78845 79504 80053 80459 80719 80860 80929 80966 80992 81002
795.9747 80973 80875 80689 80422 80102 79765 79441 79135 78829 78502 78142
801.2780 77758 77366 76979 76603 76253 75974 75849 75975 76417 77166 78129
806.5813 79160 80105 80863 81402 81752 81970 82109 82193 82231 82226 82196
811.8846 82164 82151 82155 82149 82089 81941 81699 81392 81070 80783 80560
817.1879 80406 80307 80239 80180 80109 80011 79877 79707 79505 79283 79052
822.4911 78821 78602 78403 78230 78081 77945 77806 77647 77466 77270 77076
827.7944 76899 76745 76608 76478 76347 76207 76051 75866 75637 75351 75012
833.0977 74645 74287 73964 73679 73401 73081 72673 72169 71597 71017 70494
838.4010 70071 69767 69580 69501 69521 69634 69824 70070 70340 70599 70820
843.7043 70987 71087 71112 71053 70902 70657 70324 69911 69426 68867 68227
849.0076 67495 66672 65782 64880 64060 63442 63158 63315 63955 65032 66408
854.3109 67884 69251 70345 71080 71457 71540 71421 71192 70918 70634 70345
859.6141 70036 69685 69272 68793 68255 67678 67087 66501 65934 65387 64855
864.9174 64333 63822 63343 62947 62713 62722 63030 63629 64432 65283 66004
870.2207 66448 66552 66346 65938 65468 65052 64756 64582 64487 64415 64314
875.5240 64155 63933 63660 63355 63036 62716 62397 62075 61751 61430 61122
880.8273 60837 60578 60341 60119 59910 59718 59552 59416 59311 59232 59177
886.1306 59147 59153 59203 59296 59423 59565 59707 59836 59948 60045 60131
891.4338 60215 60310 60432 60593 60798 61036 61296 61568 61851 62150 62472
896.7371 62812 63159 63495 63808 64096 64368 64638 64917 65211 65519 65833
902.0404 66136 66413 66652 66852 67027 67192 67357 67518 67660 67764 67824
907.3437 67841 67828 67798 67756 67708 67657 67607 67558 67507 67443 67358
912.6470 67258 67167 67114 67131 67232 67413 67661 67963 68319 68738 69226
917.9503 69780 70379 70990 71579 72125 72625 73085 73517 73925 74300 74630
923.2535 74900 75103 75245 75342 75416 75488 75575 75687 75823 75971 76119
928.5568 76253 76364 76453 76526 76597 76682 76791 76932 77101 77287 77477
933.8601 77660 77828 77979 78116 78241 78354 78455 78544 78623 78698 78779
939.1634 78869 78972 79083 79192 79288 79358 79397 79405 79389 79364 79347
944.4667 79348 79371 79407 79446 79475 79490 79491 79482 79466 79439 79399
949.7700 79346 79284 79221 79161 79104 79046 78982 78913 78846 78792 78757
955.0732 78737 78719 78683 78615 78512 78384 78243 78097 77939 77747 77490
960.3765 77138 76665 76052 75292 74408 73464 72573 71884 71533 71591 72028
965.6798 72715 73478 74158 74671 75020 75263 75471 75683 75905 76123 76323
970.9831 76503 76677 76857 77053 77266 77495 77731 77964 78176 78350 78477
976.2864 78559 78609 78643 78670 78690 78692 78669 78621 78562 78509 78475
981.5897 78462 78463 78460 78439 78390 78313 78214 78102 77990 77888 77803
986.8929 77737 77684 77626 77549 77442 77308 77159 77006 76845 76658 76419
992.1962 76119 75779 75453 75209 75095 75120 75251 75426 75585 75690 75727
997.4995 75706 75640 75541 75419 75284 75149 75034 74950 74901 74876 74861
1002.8028 74844 74816 74775 74714 74625 74494 74312 74078 73806 73518 73237
1008.1061 72975 72731 72498 72263 72025 71795 71593 71440 71350 71332 71387
1013.4094 71515 71712 71969 72271 72593 72909 73196 73443 73652 73829 73976
1018.7126 74091 74163 74179 74135 74032 73880 73688 73465 73215 72936 72627
1024.0160 72288 71919 71518 71082 70605 70081 69500 68850 68121 67315 66472
1029.3192 65683 65093 64874 65171 66047 67448 69205 71080 72835 74290 75364
1034.6226 76062 76453 76627 76662 76618 76536 76445 76372 76340 76359 76426
1039.9258 76524 76632 76734 76823 76904 76985 77073 77168 77264 77353 77429
1045.2291 77487 77528 77558 77583 77609 77636 77657 77662 77646 77604 77541
1050.5323 77460 77367 77263 77151 77035 76926 76833 76762 76714 76679 76642
1055.8357 76591 76518 76428 76331 76240 76163 76101 76050 76005 75961 75919
1061.1389 75879 75843 75809 75773 75725 75658 75565 75449 75322 75201 75104
1066.4423 75035 74993 74970 74959 74957 74966 74982 74992 74982 74936 74853
1071.7455 74740 74616 74499 74402 74327 74262 74191 74096 73965 73804 73624
1077.0488 73444 73272 73108 72941 72758 72552 72328 72094 71858 71621 71380
1082.3521 71132 70874 70611 70350 70097 69853 69607 69344 69038 68670 68231
1087.6554 67734 67226 66784 66504 66479 66758 67325 68091 68915 69651 70193
1092.9586 70507 70626 70623 70577 70548 70571 70662 70826 71060 71348 71658
1098.2620 71951 72187 72341 72409 72406 72359 72296 72240 72204 72189 72186
1103.5652 72180 72161 72122 72070 72013 71959 71910 71858 71799 71729 71650
1108.8685 71567 71481 71392 71297 71196 71095 71000 70918 70849 70786 70722
1114.1718 70649 70564 70464 70348 70217 70072 69918 69760 69602 69444 69286
1119.4751 69129 68975 68828 68689 68555 68414 68253 68068 67863 67652 67454
1124.7783 67275 67112 66952 66779 66588 66382 66175 65976 65788 65600 65398
1130.0817 65168 64905 64609 64281 63925 63545 63153 62775 62447 62213 62110
1135.3849 62150 62319 62573 62852 63098 63263 63323 63272 63120 62886 62593
1140.6882 62264 61915 61557 61192 60816 60429 60045 59698 59441 59326 59385
1145.9915 59604 59921 60235 60436 60442 60226 59822 59322 58836 58467 58271
1151.2948 58247 58342 58468 58539 58498 58337 58106 57898 57828 58002 58495
1156.5980 59332 60485 61878 63402 64926 66320 67474 68313 68812 68992 68912
1161.9014 68647 68267 67823 67347 66852 66345 65830 65319 64822 64351 63911
1167.2046 63502 63113 62731 62341 61938 61523 61107 60705 60328 59979 59652
1172.5079 59333 59007 58662 58295 57911 57520 57136 56770 56428 56108 55805
1177.8112 55512 55222 54934 54651 54380 54124 53879 53639 53400 53163 52942
1183.1145 52756 52622 52555 52557 52623 52748 52924 53148 53420 53743 54118
1188.4177 54548 55027 55541 56071 56590 57075 57511 57893 58227 58524 58799
1193.7211 59061 59313 59547 59753 59917 60034 60105 60141 60154 60154 60144
1199.0243 60113 60048 59934 59763 59534 59254 58936 58590 58221 57833 57425
1204.3276 57000 56567 56136 55723 55344 55018 54764 54606 54571 54687 54975
1209.6309 55448 56106 56940 57929 59044 60244 61481 62695 63827 64826 65654
1214.9342 66293 66747 67034 67185 67231 67203 67120 66994 66830 66635 66419
1220.2374 66198 65995 65829 65711 65644 65622 65640 65697 65794 65929 66091
1225.5408 66266 66435 66587 66717 66826 66915 66984 67025 67032 67000 66933
1230.8440 66843 66742 66642 66549 66464 66385 66311 66247 66196 66163 66149
1236.1473 66151 66164 66186 66211 66235 66245 66228 66175 66079 65950 65804
1241.4506 65668 65569 65528 65557 65651 65794 65960 66131 66297 66463 66647
1246.7539 66865 67132 67448 67809 68204 68626 69071 69539 70036 70563 71123
1252.0571 71715 72338 72994 73686 74426 75229 76113 77091 78168 79330 80547
1257.3605 81771 82949 84034 84993 85810 86481 87001 87368 87577 87636 87564
1262.6637 87384 87120 86792 86423 86056 85749 85554 85480 85459 85349 84989
1267.9670 84310 83400 82457 81677 81168 80943 80941 81059 81190 81259 81232
1273.2703 81110 80897 80588 80173 79642 79001 78267 77463 76612 75727 74816
1278.5736 73878 72916 71932 70935 69936 68943 67961 66993 66045 65123 64236
1283.8768 63393 62598 61856 61167 60531 59945 59410 58924 58488 58101 57764
1289.1802 57481 57259 57101 57010 56979 56994 57040 57107 57193 57306 57459
1294.4834 57663 57926 58250 58636 59081 59583 60137 60735 61369 62024 62677
1299.7867 63303 63876 64380 64815 65191 65529 65851 66180 66536 66938 67400
1305.0900 67937 68554 69257 70046 70920 71874 72895 73961 75042 76107 77132
1310.3933 78105 79022 79884 80693 81440 82110 82684 83150 83505 83758 83922
1315.6965 84006 84016 83950 83803 83568 83237 82815 82313 81757 81175 80595
1320.9999 80037 79522 79070 78706 78454 78334 78352 78505 78783 79170 79652
1326.3031 80210 80825 81481 82159 82844 83517 84159 84748 85268 85712 86083
1331.6064 86394 86661 86896 87102 87279 87425 87539 87623 87679 87711 87722
1336.9097 87717 87705 87692 87683 87682 87683 87680 87664 87636 87600 87559
1342.2130 87515 87465 87407 87341 87271 87201 87135 87068 86997 86915 86824
1347.5162 86727 86628 86529 86425 86310 86182 86042 85897 85751 85612 85479
1352.8196 85353 85229 85105 84978 84846 84708 84559 84394 84208 84005 83791
1358.1228 83577 83366 83155 82934 82695 82437 82168 81896 81628 81370 81126
1363.4261 80907 80717 80553 80409 80274 80140 80003 79857 79702 79537 79365
1368.7294 79189 79013 78839 78664 78485 78302 78118 77932 77744 77549 77351
1374.0327 77162 77005 76892 76819 76764 76711 76649 76574 76492 76408 76328
1379.3359 76253 76183 76120 76071 76043 76041 76068 76120 76195 76286 76389
1384.6393 76500 76623 76772 76970 77240 77584 77951 78277 78527 78712 78858
1389.9425 78984 79097 79192 79257 79285 79275 79230 79155 79055 78936 78806
1395.2458 78667 78519 78361 78195 78023 77845 77654 77439 77195 76930 76655
1400.5491 76377 76094 75804 75510 75223 74955 74716 74514 74352 74226 74130
1405.8524 74054 73994 73949 73921 73908 73905 73900 73885 73856 73814 73764
1411.1556 73704 73625 73512 73353 73145 72895 72617 72320 72010 71689 71362
1416.4590 71038 70728 70444 70198 70013 69924 69936 69994 70039 70052 70041
1421.7622 70020 69997 69976 69953 69914 69841 69726 69567 69365 69123 68850
1427.0656 68563 68280 68012 67756 67497 67215 66907 66595 66300 66030 65775
1432.3688 65520 65255 64985 64721 64474 64240 64009 63762 63494 63239 63041
1437.6721 62901 62794 62702 62622 62561 62525 62525 62563 62639 62752 62899
1442.9753 63086 63318 63597 63918 64263 64617 64986 65406 65943 66655 67517
1448.2787 68395 69146 69733 70205 70632 71056 71474 71845 72110 72236 72230
1453.5819 72124 71947 71722 71469 71218 71019 70941 71015 71165 71269 71288
1458.8853 71252 71206 71181 71202 71283 71422 71603 71801 72000 72204 72447
1464.1885 72772 73190 73629 74009 74319 74612 74945 75351 75826 76329 76805
1469.4918 77219 77565 77868 78158 78453 78720 78837 78713 78423 78082 77724
1474.7950 77313 76793 76124 75337 74539 73815 73168 72547 71898 71197 70449
1480.0984 69693 68998 68455 68155 68182 68602 69452 70714 72303 74087 75943
1485.4016 77816 79721 81683 83631 85377 86745 87712 88404 88992 89594 90182
1490.7050 90632 90901 91041 91121 91176 91217 91247 91268 91285 91302 91312
1496.0082 91305 91275 91234 91201 91185 91181 91178 91167 91148 91123 91102
1501.3115 91086 91078 91078 91083 91089 91093 91092 91077 91034 90938 90783
1506.6147 90653 90638 90681 90710 90709 90691 90671 90661 90662 90669 90673
1511.9181 90666 90642 90604 90560 90517 90481 90455 90434 90401 90319 90160
1517.2213 89958 89781 89656 89569 89502 89436 89351 89208 88968 88667 88404
1522.5247 88208 88049 87895 87723 87512 87259 86993 86771 86643 86628 86719
1527.8279 86888 87091 87279 87422 87513 87560 87580 87587 87590 87590 87572
1533.1312 87507 87381 87220 87065 86931 86815 86709 86610 86515 86422 86318
1538.4344 86172 85938 85624 85356 85197 85064 84876 84619 84332 84076 83886
1543.7378 83770 83719 83713 83723 83720 83690 83638 83574 83507 83439 83366
1549.0410 83273 83139 82952 82734 82520 82330 82162 82006 81845 81656 81423
1554.3444 81167 80936 80750 80596 80452 80303 80141 79980 79877 79897 79863
1559.6476 79641 79375 79148 78970 78828 78707 78594 78479 78355 78218 78069
1564.9509 77914 77759 77603 77444 77282 77116 76953 76799 76664 76548 76425
1570.2542 76271 76085 75878 75657 75428 75198 74978 74776 74595 74439 74321
1575.5575 74268 74298 74367 74407 74412 74410 74430 74492 74607 74781 75014
1580.8607 75298 75622 75968 76309 76615 76859 77028 77123 77159 77150 77110
1586.1641 77047 76959 76845 76701 76529 76332 76118 75892 75655 75404 75136
1591.4674 74851 74547 74224 73876 73496 73081 72635 72175 71721 71285 70866
1596.7706 70451 70020 69558 69053 68497 67888 67227 66521 65782 65022 64247
1602.0740 63460 62673 61920 61252 60733 60420 60361 60593 61125 61918 62873
1607.3772 63863 64789 65606 66311 66920 67439 67869 68221 68523 68819 69157
1612.6805 69566 70038 70532 71001 71431 71866 72430 73313 74550 75768 76591
1617.9838 77045 77311 77513 77699 77874 78022 78133 78213 78280 78358 78455
1623.2871 78545 78577 78535 78442 78321 78187 78041 77884 77720 77550 77377
1628.5903 77199 77013 76817 76606 76375 76122 75852 75578 75316 75076 74858
1633.8937 74654 74446 74210 73933 73652 73411 73214 73045 72893 72752 72613
1639.1969 72467 72306 72129 71941 71755 71580 71420 71270 71123 70970 70808
1644.5002 70632 70441 70237 70039 69872 69741 69605 69423 69192 68934 68669
1649.8035 68405 68140 67864 67562 67222 66868 66697 67051 67516 67644 67583
1655.1068 67468 67349 67244 67161 67107 67087 67099 67127 67153 67158 67134
1660.4100 67088 67046 67050 67148 67356 67614 67819 67924 67950 67937 67906
1665.7134 67858 67784 67682 67570 67496 67533 67745 68100 68459 68716 68893
1671.0166 69050 69202 69314 69350 69309 69236 69220 69393 69869 70552 71123
1676.3199 71421 71530 71580 71655 71810 72094 72544 73153 73828 74437 74892
1681.6232 75185 75359 75504 75838 76881 79093 81241 82100 82244 82250 82308
1686.9265 82465 82730 83095 83535 84002 84442 84820 85131 85392 85620 85824
1692.2297 86006 86160 86279 86367 86447 86584 86911 87547 88320 88861 89088
1697.5331 89135 89108 89061 89048 89218 89836 90759 91361 91596 91694 91778
1702.8363 91898 92075 92309 92581 92858 93116 93350 93564 93753 93907 94026
1708.1396 94120 94203 94283 94360 94425 94469 94494 94511 94531 94558 94591
1713.4429 94627 94664 94698 94732 94770 94812 94862 94911 94940 94920 94856
1718.7462 94793 94761 94757 94773 94800 94829 94854 94871 94879 94884 94893
1724.0494 94913 94940 94968 94990 94999 94996 94985 94973 94966 94963 94960
1729.3528 94945 94910 94855 94786 94712 94633 94542 94427 94285 94151 94096
1734.6560 94111 94124 94097 94027 93921 93789 93646 93504 93368 93231 93076
1739.9594 92897 92709 92525 92345 92151 91923 91647 91334 91019 90731 90470
1745.2626 90218 89959 89689 89410 89136 88878 88646 88443 88265 88113 87994
1750.5659 87921 87905 87937 87992 88050 88105 88160 88225 88309 88428 88605
1755.8691 88863 89196 89559 89880 90112 90261 90361 90445 90536 90653 90816
1761.1725 91033 91278 91492 91630 91700 91734 91761 91795 91835 91875 91908
1766.4757 91943 91998 92091 92219 92349 92448 92508 92550 92604 92709 92902
1771.7791 93187 93480 93684 93792 93858 93921 93998 94092 94192 94286 94362
1777.0823 94420 94465 94504 94543 94588 94640 94701 94765 94824 94870 94900
1782.3856 94918 94928 94935 94938 94933 94915 94881 94835 94787 94743 94709
1787.6888 94687 94674 94669 94668 94670 94676 94683 94686 94670 94628 94570
1792.9922 94520 94492 94483 94481 94476 94462 94442 94421 94408 94404 94405
1798.2954 94403 94392 94365 94322 94268 94211 94160 94120 94091 94073 94060
1803.5988 94047 94035 94026 94024 94028 94035 94036 94030 94018 94010 94013
1808.9020 94029 94050 94066 94063 94038 93999 93958 93925 93904 93897 93904
1814.2053 93925 93961 94008 94057 94094 94106 94084 94034 93971 93917 93887
1819.5085 93886 93908 93936 93953 93946 93913 93864 93812 93770 93746 93741
1824.8119 93745 93747 93733 93703 93665 93630 93607 93600 93607 93607 93567
1830.1151 93474 93354 93245 93170 93139 93151 93198 93264 93328 93370 93382
1835.4185 93363 93321 93268 93224 93205 93219 93261 93315 93364 93394 93403
1840.7217 93398 93390 93390 93401 93419 93442 93468 93502 93542 93580 93606
1846.0250 93611 93595 93560 93520 93488 93473 93468 93460 93437 93397 93349
1851.3282 93308 93283 93272 93261 93234 93183 93118 93058 93020 93008 93012
1856.6316 93021 93033 93054 93095 93153 93208 93230 93195 93098 92963 92826
1861.9348 92727 92688 92712 92779 92862 92932 92969 92967 92934 92894 92875
1867.2382 92900 92973 93080 93183 93246 93258 93238 93211 93189 93177 93168
1872.5414 93157 93142 93120 93095 93064 93030 92998 92985 93006 93068 93157
1877.8447 93244 93290 93277 93213 93129 93065 93040 93055 93094 93141 93191
1883.1479 93246 93306 93361 93395 93396 93365 93313 93260 93216 93190 93186
1888.4513 93207 93248 93292 93308 93279 93211 93129 93060 93020 93007 93006
1893.7545 93002 92990 92983 93002 93057 93138 93225 93304 93374 93446 93526
1899.0579 93611 93686 93730 93730 93685 93605 93506 93401 93301 93215 93150
1904.3611 93108 93086 93075 93057 93016 92947 92866 92807 92809 92893 93041
1909.6644 93195 93286 93275 93185 93078 93024 93053 93151 93259 93315 93287
1914.9677 93193 93084 93012 93011 93083 93197 93281 93256 93088 92803 92460
1920.2710 92125 91859 91712 91704 91805 91939 92035 92079 92121 92225 92426
1925.5742 92709 93016 93270 93410 93416 93310 93138 92948 92782 92673 92641
1930.8776 92688 92791 92908 92996 93030 93021 92996 92982 92983 92987 92983
1936.1808 92980 93008 93091 93218 93338 93389 93338 93210 93074 92997 93011
1941.4841 93091 93174 93192 93134 93043 92967 92924 92902 92886 92878 92898
1946.7874 92964 93063 93148 93159 93055 92848 92591 92356 92191 92096 92033
1952.0907 91955 91845 91732 91677 91743 91962 92312 92719 93087 93327 93395
1957.3939 93299 93096 92873 92716 92674 92743 92873 92988 93024 92956 92798
1962.6973 92598 92411 92281 92228 92241 92292 92355 92429 92542 92727 92987
1968.0005 93270 93500 93617 93610 93508 93351 93165 92954 92717 92475 92268
1973.3038 92129 92060 92026 91995 91972 91999 92125 92355 92641 92913 93131
1978.6071 93289 93387 93386 93213 92814 92224 91583 91079 90860 90950 91242
1983.9104 91566 91789 91885 91932 92045 92282 92598 92852 92879 92595 92069
1989.2136 91481 91019 90797 90834 91075 91426 91792 92108 92342 92474 92491
1994.5170 92397 92234 92078 92007 92049 92167 92280 92319 92263 92149 92037
1999.8202 91973 91966 91992 92025 92053 92081 92115 92154 92182 92180 92148
2005.1235 92113 92127 92242 92477 92792 93097 93277 93256 93028 92666 92293
2010.4268 92029 91937 92005 92166 92350 92521 92684 92853 93016 93125 93119
2015.7301 92972 92727 92476 92301 92222 92194 92160 92100 92040 92023 92069
2021.0333 92166 92298 92477 92739 93101 93500 93796 93838 93567 93067 92526
2026.3367 92123 91919 91830 91701 91438 91085 90804 90758 90997 91416 91831
2031.6399 92090 92163 92137 92124 92166 92204 92127 91868 91472 91080 90848
2036.9432 90856 91075 91391 91680 91872 91984 92085 92236 92428 92573 92553
2042.2465 92303 91874 91417 91108 91055 91243 91544 91793 91883 91822 91723
2047.5498 91716 91876 92172 92487 92683 92676 92470 92139 91785 91493 91312
2052.8530 91249 91269 91321 91355 91360 91356 91383 91466 91594 91720 91777
2058.1563 91707 91490 91158 90797 90521 90432 90574 90908 91322 91683 91896
2063.4597 91938 91856 91728 91613 91528 91461 91401 91349 91310 91278 91220
2068.7629 91100 90906 90669 90456 90328 90314 90390 90500 90582 90596 90541
2074.0662 90441 90334 90250 90201 90179 90168 90159 90159 90185 90256 90372
2079.3694 90510 90636 90720 90755 90757 90750 90747 90742 90718 90657 90557
2084.6729 90434 90312 90218 90170 90174 90224 90303 90387 90456 90494 90499
2089.9761 90478 90448 90425 90424 90452 90511 90592 90672 90722 90712 90627
2095.2793 90479 90307 90163 90099 90142 90285 90493 90709 90879 90970 90978
2100.5825 90927 90852 90786 90748 90745 90772 90818 90867 90901 90906 90876
2105.8860 90817 90749 90691 90650 90621 90591 90554 90516 90495 90506 90546
2111.1892 90601 90646 90669 90672 90668 90671 90682 90691 90684 90646 90573
2116.4924 90473 90359 90253 90181 90170 90238 90382 90574 90765 90899 90946
2121.7957 90915 90860 90849 90928 91093 91286 91429 91468 91400 91264 91113
2127.0991 90974 90844 90712 90591 90524 90567 90738 90990 91225 91344 91303
2132.4023 91144 90969 90885 90947 91127 91341 91497 91544 91494 91407 91350
2137.7056 91360 91423 91485 91483 91387 91220 91051 90956 90979 91115 91311
2143.0088 91505 91652 91738 91767 91744 91664 91518 91307 91052 90788 90560
2148.3123 90407 90359 90425 90589 90814 91048 91253 91424 91581 91746 91905
2153.6155 91996 91941 91694 91286 90826 90453 90284 90362 90637 90987 91272
2158.9187 91413 91433 91417 91420 91412 91292 90966 90435 89824 89330 89121
2164.2219 89249 89626 90085 90467 90686 90737 90650 90466 90234 90034 89974
2169.5254 90145 90556 91092 91548 91723 91534 91062 90512 90109 89999 90194
2174.8286 90595 91040 91372 91478 91317 90931 90446 90033 89846 89942 90244
2180.1318 90570 90725 90620 90324 90031 89930 90099 90457 90826 91035 91015
2185.4351 90823 90591 90445 90428 90495 90555 90539 90448 90348 90316 90387
2190.7385 90534 90682 90766 90761 90693 90605 90528 90471 90435 90432 90483
2196.0417 90593 90733 90837 90834 90688 90429 90135 89896 89769 89760 89833
2201.3450 89940 90048 90146 90240 90334 90417 90464 90448 90361 90226 90090
2206.6482 90000 89977 90006 90042 90050 90025 89999 90018 90100 90220 90323
2211.9517 90360 90323 90246 90183 90169 90205 90258 90293 90284 90229 90135
2217.2549 90020 89906 89825 89813 89901 90096 90372 90669 90907 91010 90933
2222.5581 90678 90298 89875 89493 89214 89060 89029 89105 89271 89497 89734
2227.8613 89919 89998 89957 89831 89679 89550 89454 89368 89274 89180 89122
2233.1648 89134 89218 89337 89436 89477 89463 89426 89402 89406 89430 89456
2238.4680 89470 89467 89448 89415 89373 89331 89308 89318 89367 89442 89519
2243.7712 89567 89562 89492 89363 89201 89048 88949 88934 89002 89120 89239
2249.0745 89318 89337 89303 89231 89137 89033 88936 88874 88879 88968 89121
2254.3779 89287 89403 89431 89380 89300 89255 89283 89383 89513 89620 89663
2259.6812 89629 89536 89417 89305 89222 89172 89144 89123 89101 89079 89078
2264.9844 89121 89225 89382 89554 89687 89729 89653 89473 89238 89009 88838
2270.2876 88746 88725 88748 88786 88824 88862 88911 88977 89056 89133 89191
2275.5911 89219 89220 89205 89185 89163 89140 89117 89096 89085 89076 89056
2280.8943 89001 88900 88760 88608 88480 88401 88377 88398 88448 88515 88587
2286.1975 88656 88712 88748 88761 88758 88750 88744 88740 88729 88704 88664
2291.5007 88613 88563 88525 88510 88525 88570 88636 88700 88736 88721 88649
2296.8042 88533 88402 88291 88224 88211 88251 88338 88459 88598 88732 88831
2302.1074 88875 88858 88798 88727 88674 88647 88636 88615 88569 88504 88448
2307.4106 88433 88475 88560 88656 88724 88738 88702 88638 88577 88543 88542
2312.7139 88560 88578 88576 88550 88505 88456 88421 88414 88440 88499 88579
2318.0173 88662 88729 88768 88777 88769 88756 88742 88716 88665 88587 88498
2323.3206 88424 88384 88376 88385 88391 88388 88386 88393 88413 88438 88455
2328.6238 88459 88460 88470 88497 88530 88546 88528 88475 88408 88359 88354
2333.9270 88396 88469 88545 88597 88608 88584 88545 88515 88512 88541 88599
2339.2305 88671 88735 88765 88743 88673 88588 88528 88521 88560 88610 88632
2344.5337 88610 88560 88514 88489 88474 88446 88388 88305 88209 88116 88037
2349.8369 87979 87945 87938 87957 88005 88092 88227 88410 88611 88776 88843
2355.1401 88788 88658 88566 88624 88869 89226 89544 89688 89623 89420 89194
2360.4436 89024 88914 88820 88707 88581 88471 88399 88359 88330 88303 88286
2365.7468 88288 88294 88262 88154 87968 87756 87594 87538 87587 87691 87780
2371.0500 87809 87773 87700 87624 87564 87514 87459 87381 87277 87158 87043
2376.3533 86952 86896 86875 86878 86888 86886 86860 86809 86740 86668 86605
2381.6567 86562 86542 86540 86549 86560 86567 86567 86563 86556 86549 86541
2386.9600 86531 86515 86494 86471 86449 86435 86431 86435 86441 86439 86421
2392.2632 86386 86343 86307 86293 86310 86351 86405 86454 86488 86506 86510
2397.5664 86507 86497 86478 86447 86407 86367 86336 86326 86338 86364 86390
2402.8699 86404 86398 86375 86344 86316 86299 86295 86297 86293 86273 86231
2408.1731 86170 86099 86034 85994 85992 86029 86095 86171 86235 86275 86284
2413.4763 86267 86232 86190 86150 86121 86105 86096 86082 86049 85997 85937
2418.7795 85889 85867 85869 85876 85867 85830 85775 85724 85693 85688 85700
2424.0830 85715 85730 85748 85774 85807 85829 85821 85771 85684 85582 85493
2429.3862 85440 85427 85446 85477 85500 85505 85490 85461 85430 85404 85389
2434.6895 85381 85379 85375 85367 85356 85347 85347 85361 85386 85412 85426
2439.9927 85419 85390 85348 85309 85285 85284 85303 85334 85365 85383 85379
2445.2961 85348 85300 85249 85211 85190 85177 85156 85113 85049 84978 84920
2450.5994 84885 84871 84863 84850 84827 84796 84765 84738 84719 84710 84716
2455.9026 84734 84755 84764 84747 84702 84644 84597 84578 84585 84599 84595
2461.2058 84559 84494 84419 84360 84332 84335 84356 84379 84391 84390 84383
2466.5093 84382 84395 84418 84441 84449 84430 84388 84338 84297 84277 84273
2471.8125 84270 84248 84197 84123 84047 83991 83966 83967 83977 83978 83963
2477.1157 83940 83925 83928 83946 83961 83950 83903 83828 83753 83707 83706
2482.4189 83744 83799 83840 83849 83821 83763 83695 83634 83588 83560 83545
2487.7224 83539 83541 83553 83579 83618 83660 83690 83690 83654 83589 83513
2493.0256 83444 83397 83373 83366 83368 83374 83384 83400 83417 83425 83413
2498.3289 83373 83305 83222 83143 83085 83059 83063 83087 83111 83112 83074
2503.6321 82987 82863 82722 82592 82496 82442 82420 82416 82412 82402 82381
2508.9355 82351 82314 82271 82224 82177 82134 82093 82051 82005 81957 81912
2514.2388 81874 81843 81814 81778 81735 81693 81663 81651 81653 81654 81639
2519.5420 81601 81547 81492 81446 81414 81385 81350 81300 81241 81184 81144
2524.8452 81124 81122 81127 81132 81136 81143 81155 81170 81176 81160 81116
2530.1487 81047 80972 80911 80883 80895 80943 81007 81065 81093 81083 81041
2535.4519 80986 80945 80933 80953 80992 81031 81056 81064 81059 81055 81060
2540.7551 81080 81110 81138 81152 81147 81124 81100 81090 81106 81145 81192
2546.0583 81227 81234 81213 81174 81134 81106 81096 81103 81119 81138 81152
2551.3618 81159 81158 81152 81146 81143 81145 81155 81178 81213 81257 81300
2556.6650 81330 81339 81327 81307 81293 81299 81324 81359 81391 81409 81411
2561.9683 81399 81379 81353 81323 81290 81255 81225 81203 81194 81198 81214
2567.2715 81237 81265 81295 81326 81358 81388 81416 81440 81459 81473 81482
2572.5750 81481 81466 81432 81379 81311 81242 81183 81141 81116 81099 81080
2577.8782 81049 81008 80963 80921 80888 80863 80838 80808 80767 80720 80676
2583.1814 80646 80637 80646 80661 80670 80663 80642 80615 80594 80585 80589
2588.4849 80599 80611 80623 80637 80654 80672 80688 80701 80719 80749 80796
2593.7881 80859 80926 80987 81033 81065 81092 81121 81158 81199 81239 81270
2599.0913 81291 81304 81316 81337 81371 81416 81462 81496 81508 81495 81467
2604.3945 81438 81421 81424 81445 81479 81518 81559 81599 81637 81671 81699
2609.6980 81722 81742 81763 81784 81806 81824 81834 81837 81836 81837 81846
2615.0012 81862 81885 81914 81949 81992 82044 82103 82159 82205 82235 82250
2620.3044 82257 82269 82292 82332 82386 82451 82517 82572 82609 82622 82615
2625.6077 82600 82591 82600 82629 82671 82713 82746 82767 82785 82806 82837
2630.9111 82874 82905 82921 82915 82895 82873 82865 82881 82922 82976 83031
2636.2144 83075 83103 83113 83108 83093 83073 83055 83046 83052 83072 83101
2641.5176 83126 83135 83125 83097 83062 83029 83004 82985 82967 82945 82916
2646.8208 82884 82856 82840 82840 82857 82884 82912 82929 82929 82911 82884
2652.1243 82864 82862 82883 82919 82956 82978 82978 82960 82932 82903 82875
2657.4275 82849 82824 82803 82790 82786 82791 82796 82796 82788 82774 82762
2662.7307 82756 82758 82766 82772 82772 82766 82754 82742 82734 82730 82730
2668.0339 82731 82729 82727 82724 82724 82725 82728 82730 82731 82732 82733
2673.3374 82737 82745 82759 82781 82808 82838 82861 82872 82866 82847 82821
2678.6406 82797 82778 82767 82761 82758 82754 82748 82737 82719 82697 82675
2683.9438 82659 82654 82657 82663 82664 82652 82628 82597 82566 82543 82530
2689.2471 82526 82526 82525 82516 82496 82465 82430 82398 82376 82369 82374
2694.5505 82380 82377 82359 82330 82298 82276 82271 82283 82303 82321 82332
2699.8538 82337 82341 82349 82364 82382 82398 82408 82414 82423 82440 82467
2705.1570 82502 82538 82568 82588 82600 82609 82624 82650 82687 82732 82774
2710.4602 82805 82821 82824 82822 82825 82840 82870 82910 82950 82981 82992
2715.7637 82981 82951 82915 82888 82883 82902 82935 82969 82988 82989 82978
2721.0669 82967 82965 82972 82984 82993 82997 83000 83004 83012 83020 83022
2726.3701 83015 83000 82985 82978 82986 83012 83051 83094 83131 83156 83170
2731.6733 83176 83183 83195 83210 83225 83237 83244 83250 83257 83267 83274
2736.9768 83273 83260 83238 83211 83189 83177 83178 83193 83220 83256 83295
2742.2800 83329 83348 83348 83329 83298 83263 83233 83210 83192 83174 83151
2747.5833 83122 83089 83056 83029 83009 82996 82986 82976 82964 82952 82941
2752.8865 82933 82925 82914 82898 82878 82860 82849 82844 82844 82842 82835
2758.1899 82821 82801 82778 82757 82743 82740 82747 82762 82778 82787 82784
2763.4932 82767 82740 82707 82672 82637 82603 82573 82550 82537 82530 82526
2768.7964 82518 82501 82474 82440 82405 82374 82352 82344 82346 82352 82353
2774.0996 82342 82318 82285 82255 82231 82215 82198 82168 82120 82056 81983
2779.4031 81913 81854 81807 81769 81738 81716 81704 81705 81718 81736 81751
2784.7063 81755 81746 81728 81705 81685 81669 81655 81639 81618 81596 81578
2790.0095 81571 81579 81596 81613 81616 81597 81559 81513 81472 81449 81448
2795.3127 81466 81490 81511 81524 81528 81526 81520 81506 81481 81445 81402
2800.6162 81360 81328 81305 81288 81269 81245 81218 81192 81174 81163 81153
2805.9194 81140 81119 81090 81056 81017 80972 80920 80862 80801 80744 80697
2811.2227 80666 80654 80660 80679 80703 80723 80732 80727 80707 80675 80636
2816.5259 80594 80557 80530 80517 80516 80522 80526 80524 80511 80487 80455
2821.8293 80416 80374 80332 80295 80269 80253 80248 80248 80251 80256 80261
2827.1326 80268 80275 80280 80282 80280 80273 80260 80240 80213 80185 80165
2832.4358 80158 80169 80192 80219 80242 80257 80265 80270 80274 80277 80278
2837.7390 80274 80268 80264 80266 80275 80291 80311 80334 80357 80380 80402
2843.0425 80419 80430 80436 80444 80460 80489 80530 80577 80620 80649 80660
2848.3457 80655 80640 80619 80597 80575 80556 80542 80538 80548 80570 80599
2853.6489 80626 80642 80642 80631 80622 80627 80649 80684 80718 80739 80742
2858.9521 80731 80717 80711 80719 80739 80768 80799 80827 80848 80863 80871
2864.2556 80877 80884 80894 80911 80935 80967 81007 81054 81105 81158 81208
2869.5588 81250 81282 81304 81319 81332 81348 81373 81409 81456 81511 81568
2874.8621 81623 81674 81719 81759 81793 81821 81842 81857 81872 81891 81917
2880.1653 81947 81976 81997 82010 82019 82033 82059 82095 82135 82169 82193
2885.4688 82210 82229 82257 82296 82335 82363 82374 82368 82358 82356 82369
2890.7720 82393 82422 82450 82482 82529 82597 82681 82762 82817 82829 82803
2896.0752 82760 82728 82726 82755 82800 82841 82864 82869 82864 82860 82864
2901.3784 82876 82894 82917 82943 82972 82998 83016 83022 83016 83005 82996
2906.6819 82993 82994 82991 82978 82952 82920 82893 82885 82903 82945 83003
2911.9851 83062 83106 83128 83128 83116 83107 83110 83126 83147 83163 83167
2917.2883 83165 83171 83195 83237 83284 83318 83330 83325 83323 83342 83391
2922.5916 83463 83539 83604 83648 83673 83683 83684 83681 83677 83673 83672
2927.8950 83672 83673 83672 83670 83671 83678 83689 83702 83709 83708 83701
2933.1982 83695 83694 83698 83699 83691 83669 83635 83595 83558 83528 83503
2938.5015 83479 83451 83418 83386 83364 83358 83368 83386 83401 83402 83387
2943.8047 83361 83331 83303 83280 83259 83241 83225 83218 83223 83242 83271
2949.1082 83305 83340 83371 83396 83411 83413 83402 83385 83374 83378 83402
2954.4114 83441 83482 83509 83512 83488 83444 83394 83352 83331 83333 83354
2959.7146 83379 83393 83389 83368 83342 83324 83324 83340 83363 83382 83393
2965.0178 83396 83394 83388 83377 83355 83319 83273 83223 83179 83148 83130
2970.3213 83121 83112 83099 83078 83051 83023 83000 82983 82968 82954 82937
2975.6245 82920 82908 82906 82915 82934 82953 82965 82966 82955 82942 82934
2980.9277 82937 82949 82960 82962 82948 82924 82899 82887 82890 82904 82921
2986.2310 82930 82929 82920 82905 82889 82869 82845 82817 82790 82769 82759
2991.5344 82758 82763 82766 82761 82746 82724 82699 82676 82655 82636 82616
2996.8376 82594 82572 82555 82550 82562 82591 82630 82670 82702 82720 82725
3002.1409 82724 82728 82742 82769 82810 82858 82909 82955 82985 82991 82972
3007.4441 82933 82891 82866 82869 82900 82942 82974 82981 82963 82933 82913
3012.7476 82915 82943 82987 83031 83059 83062 83043 83009 82977 82959 82964
3018.0508 82989 83028 83073 83116 83153 83179 83189 83180 83158 83134 83125
3023.3540 83146 83195 83259 83315 83346 83347 83335 83330 83352 83403 83472
3028.6572 83543 83600 83638 83662 83680 83696 83705 83702 83679 83639 83593
3033.9607 83559 83551 83573 83617 83667 83704 83719 83714 83699 83688 83691
3039.2639 83708 83735 83764 83787 83801 83806 83806 83804 83804 83806 83809
3044.5671 83814 83818 83825 83834 83846 83856 83861 83856 83843 83830 83823
3049.8704 83822 83826 83826 83820 83810 83807 83818 83847 83889 83935 83973
3055.1738 83998 84011 84014 84012 84006 83999 83989 83980 83974 83973 83978
3060.4771 83987 83997 84007 84018 84029 84042 84057 84073 84090 84109 84133
3065.7803 84165 84206 84255 84309 84368 84434 84506 84580 84648 84697 84725
3071.0835 84735 84743 84764 84805 84858 84907 84934 84935 84922 84918 84942
3076.3870 84998 85071 85137 85177 85187 85182 85182 85202 85244 85298 85350
3081.6902 85392 85425 85454 85484 85514 85543 85567 85586 85604 85627 85656
3086.9934 85694 85734 85770 85796 85810 85816 85822 85835 85856 85881 85903
3092.2966 85920 85936 85961 86007 86072 86149 86220 86269 86292 86294 86290
3097.6001 86290 86297 86307 86317 86322 86324 86326 86335 86356 86389 86434
3102.9033 86484 86531 86567 86586 86591 86588 86583 86581 86583 86589 86599
3108.2065 86611 86623 86635 86647 86665 86697 86749 86818 86889 86947 86978
3113.5098 86981 86965 86941 86916 86892 86864 86832 86800 86777 86768 86774
3118.8132 86794 86819 86847 86876 86909 86948 86991 87035 87075 87104 87121
3124.1165 87125 87116 87101 87086 87080 87090 87118 87158 87199 87226 87230
3129.4197 87214 87191 87178 87189 87224 87272 87312 87328 87315 87284 87253
3134.7229 87241 87252 87283 87323 87362 87395 87422 87441 87454 87457 87454
3140.0264 87448 87448 87456 87469 87482 87489 87491 87496 87515 87552 87600
3145.3296 87642 87662 87654 87628 87604 87605 87640 87703 87770 87817 87826
3150.6328 87798 87750 87704 87675 87670 87681 87700 87718 87734 87751 87775
3155.9360 87806 87843 87883 87919 87946 87961 87964 87959 87954 87956 87968
3161.2395 87987 88002 88006 87999 87987 87984 87996 88022 88049 88064 88056
3166.5427 88026 87988 87956 87943 87952 87980 88018 88058 88093 88122 88142
3171.8459 88150 88144 88124 88090 88052 88018 88001 88008 88037 88076 88109
3177.1492 88120 88104 88067 88023 87989 87970 87962 87956 87945 87930 87918
3182.4526 87917 87928 87942 87948 87944 87935 87932 87942 87960 87971 87961
3187.7559 87924 87867 87806 87757 87727 87714 87715 87726 87744 87770 87798
3193.0591 87823 87836 87831 87808 87772 87733 87701 87681 87675 87678 87683
3198.3623 87687 87687 87685 87683 87679 87669 87647 87611 87555 87483 87398
3203.6658 87309 87223 87153 87107 87088 87095 87116 87138 87146 87132 87096
3208.9690 87046 86992 86940 86890 86835 86772 86702 86632 86569 86519 86484
3214.2722 86465 86459 86461 86461 86444 86394 86307 86189 86060 85941 85848
3219.5754 85787 85753 85740 85741 85752 85765 85772 85760 85725 85667 85596
3224.8789 85525 85466 85427 85412 85417 85438 85465 85483 85484 85461 85423
3230.1821 85382 85352 85343 85352 85374 85401 85427 85453 85480 85511 85548
3235.4854 85594 85653 85723 85797 85864 85915 85948 85969 85991 86029 86091
3240.7886 86180 86290 86413 86538 86652 86746 86814 86858 86885 86912 86953
3246.0920 87019 87112 87227 87356 87489 87618 87740 87855 87964 88070 88172
3251.3953 88272 88375 88483 88596 88710 88815 88907 88984 89054 89130 89216
3256.6985 89315 89420 89524 89624 89719 89812 89903 89988 90067 90138 90203
3262.0017 90264 90321 90376 90429 90482 90539 90606 90686 90778 90880 90983
3267.3052 91078 91156 91215 91255 91283 91308 91338 91378 91426 91479 91530
3272.6084 91573 91603 91619 91626 91635 91660 91708 91778 91859 91938 92007
3277.9116 92068 92130 92201 92283 92364 92428 92466 92475 92468 92458 92457
3283.2148 92469 92491 92517 92541 92563 92582 92601 92625 92655 92692 92736
3288.5183 92785 92836 92883 92922 92948 92960 92960 92951 92943 92945 92964
3293.8215 92999 93044 93083 93104 93102 93083 93059 93046 93047 93061 93078
3299.1248 93090 93096 93101 93111 93128 93149 93169 93185 93196 93206 93219
3304.4280 93234 93252 93272 93295 93320 93347 93370 93383 93377 93350 93307
3309.7314 93257 93214 93184 93167 93161 93158 93157 93158 93166 93183 93211
3315.0347 93250 93293 93333 93356 93350 93314 93257 93205 93182 93208 93279
3320.3379 93376 93468 93532 93555 93541 93501 93454 93411 93382 93368 93369
3325.6411 93377 93385 93384 93371 93348 93323 93308 93314 93347 93405 93478
3330.9446 93553 93618 93666 93693 93704 93703 93694 93680 93662 93642 93619
3336.2478 93596 93580 93577 93589 93614 93642 93659 93658 93640 93615 93597
3341.5510 93597 93614 93639 93664 93683 93697 93707 93716 93719 93713 93700
3346.8542 93692 93702 93737 93790 93843 93872 93866 93831 93785 93752 93743
3352.1577 93758 93784 93806 93818 93821 93824 93834 93851 93872 93892 93908
3357.4609 93922 93937 93954 93965 93961 93939 93902 93867 93849 93861 93902
3362.7642 93961 94024 94081 94128 94163 94183 94180 94151 94102 94047 94004
3368.0674 93984 93986 94001 94015 94022 94026 94035 94054 94082 94111 94134
3373.3708 94144 94143 94132 94112 94085 94055 94030 94017 94022 94042 94068
3378.6741 94087 94095 94092 94083 94076 94073 94072 94067 94056 94038 94016
3383.9773 93992 93966 93941 93920 93908 93911 93931 93966 94009 94049 94080
3389.2805 94099 94109 94114 94116 94115 94108 94095 94075 94053 94035 94022
3394.5840 94017 94013 94003 93981 93943 93900 93872 93878 93930 94018 94114
3399.8872 94187 94208 94172 94093 93996 93909 93849 93826 93837 93878 93935
3405.1904 93995 94044 94072 94077 94066 94048 94031 94018 94009 94002 93994
3410.4937 93985 93971 93947 93911 93865 93821 93793 93793 93823 93875 93933
3415.7971 93985 94022 94046 94061 94068 94067 94054 94031 94006 93991 93994
3421.1003 94014 94037 94049 94038 94004 93959 93921 93902 93906 93927 93949
3426.4036 93962 93960 93949 93940 93945 93965 93995 94018 94022 94002 93962
3431.7068 93918 93881 93858 93845 93835 93825 93817 93816 93828 93850 93875
3437.0103 93897 93916 93937 93966 93999 94024 94028 94004 93959 93912 93886
3442.3135 93890 93918 93952 93974 93973 93951 93918 93890 93880 93894 93925
3447.6167 93955 93965 93942 93890 93823 93761 93719 93704 93712 93732 93758
3452.9199 93787 93819 93852 93881 93903 93916 93922 93926 93931 93932 93926
3458.2234 93907 93878 93845 93812 93783 93754 93722 93690 93666 93661 93680
3463.5266 93715 93751 93775 93780 93774 93765 93761 93764 93768 93770 93770
3468.8298 93774 93784 93797 93804 93792 93755 93696 93627 93562 93517 93499
3474.1331 93511 93547 93593 93636 93665 93678 93676 93664 93649 93636 93632
3479.4365 93642 93668 93703 93729 93722 93666 93566 93449 93352 93304 93313
3484.7397 93366 93437 93495 93522 93517 93493 93470 93460 93463 93471 93469
3490.0430 93451 93418 93383 93360 93355 93367 93384 93390 93379 93353 93325
3495.3462 93310 93314 93335 93361 93384 93398 93404 93405 93401 93393 93384
3500.6497 93382 93395 93426 93468 93502 93511 93488 93439 93379 93321 93275
3505.9529 93243 93225 93219 93215 93200 93163 93107 93050 93022 93046 93119
3511.2561 93215 93299 93342 93340 93308 93276 93265 93277 93296 93303 93288
3516.5593 93256 93225 93210 93212 93220 93219 93204 93184 93178 93197 93242
3521.8628 93296 93335 93342 93321 93293 93281 93293 93322 93356 93382 93397
3527.1660 93401 93401 93397 93385 93363 93331 93295 93263 93245 93242 93253
3532.4692 93274 93300 93325 93347 93362 93366 93357 93335 93307 93285 93277
3537.7725 93288 93316 93351 93386 93413 93433 93449 93466 93487 93506 93516
3543.0759 93510 93483 93439 93393 93362 93364 93405 93475 93552 93612 93641
3548.3792 93639 93617 93591 93572 93563 93560 93556 93539 93505 93456 93398
3553.6824 93341 93297 93276 93284 93324 93390 93466 93536 93588 93618 93628
3558.9856 93620 93591 93542 93476 93405 93349 93325 93338 93381 93433 93475
3564.2891 93492 93487 93469 93456 93458 93475 93490 93489 93470 93441 93415
3569.5923 93396 93384 93374 93360 93337 93306 93276 93258 93258 93272 93294
3574.8955 93316 93342 93377 93426 93482 93527 93545 93527 93477 93409 93340
3580.1990 93282 93241 93217 93213 93227 93251 93273 93281 93273 93260 93260
3585.5022 93287 93343 93412 93469 93499 93510 93517 93523 93519 93497 93458
3590.8054 93405 93344 93278 93210 93143 93091 93072 93102 93177 93269 93333
3596.1086 93341 93293 93217 93147 93113 93124 93168 93220 93256 93267 93258
3601.4121 93246 93249 93271 93310 93353 93388 93403 93390 93354 93307 93272
3606.7153 93272 93319 93397 93469 93497 93468 93401 93321 93249 93187 93133
3612.0186 93087 93053 93038 93047 93075 93113 93158 93205 93251 93289 93308
3617.3218 93301 93271 93241 93245 93300 93385 93461 93498 93481 93417 93317
3622.6252 93201 93094 93018 92992 93020 93088 93170 93243 93301 93361 93453
3627.9285 93610 93805 93912 93838 93655 93462 93301 93176 93086 93032 93016
3633.2317 93040 93092 93148 93189 93208 93209 93198 93187 93183 93195 93224
3638.5349 93262 93296 93313 93308 93284 93252 93228 93222 93230 93240 93239
3643.8384 93219 93182 93136 93093 93069 93078 93126 93200 93275 93339 93396
3649.1416 93449 93478 93449 93352 93227 93126 93076 93086 93148 93249 93374
3654.4448 93506 93624 93699 93701 93629 93517 93405 93311 93240 93193 93171
3659.7480 93167 93170 93166 93145 93109 93067 93034 93021 93033 93059 93083
3665.0515 93088 93068 93034 93006 93005 93042 93114 93201 93274 93314 93326
3670.3547 93330 93331 93320 93285 93224 93138 93028 92901 92782 92744 92872
3675.6580 93090 93249 93327 93354 93354 93333 93291 93233 93171 93124 93105
3680.9612 93116 93148 93190 93226 93246 93244 93226 93204 93189 93191 93210
3686.2646 93244 93288 93337 93376 93392 93387 93375 93368 93362 93341 93291
3691.5679 93211 93121 93044 92999 92993 93024 93077 93127 93154 93155 93140
3696.8711 93125 93121 93124 93127 93125 93123 93133 93161 93203 93236 93231
3702.1743 93184 93123 93079 93071 93102 93159 93219 93253 93244 93190 93109
3707.4778 93021 92947 92902 92892 92910 92951 93024 93145 93305 93444 93487
3712.7810 93424 93307 93190 93105 93064 93063 93083 93104 93112 93105 93089
3718.0842 93070 93054 93042 93035 93028 93021 93012 92999 92983 92971 92974
3723.3875 92998 93047 93117 93198 93265 93290 93258 93188 93116 93068 93051
3728.6909 93055 93070 93083 93087 93079 93061 93037 93008 92975 92935 92887
3733.9941 92832 92781 92761 92791 92860 92935 92991 93017 93016 92997 92977
3739.2974 92970 92986 93022 93060 93075 93052 92989 92897 92804 92775 92900
3744.6006 93129 93275 93294 93242 93166 93091 93035 93015 93039 93097 93155
3749.9041 93188 93205 93227 93269 93314 93326 93289 93218 93133 93047 92969
3755.2073 92907 92871 92862 92870 92880 92881 92877 92884 92922 92990 93054
3760.5105 93079 93047 92967 92862 92761 92696 92686 92732 92820 92922 93002
3765.8137 93036 93027 92991 92946 92900 92857 92819 92789 92764 92740 92719
3771.1172 92710 92719 92746 92784 92815 92822 92801 92762 92725 92709 92716
3776.4204 92737 92754 92756 92743 92723 92715 92729 92763 92804 92841 92868
3781.7236 92882 92877 92852 92809 92764 92736 92739 92767 92804 92831 92845
3787.0269 92849 92855 92869 92889 92909 92917 92908 92881 92840 92793 92748
3792.3303 92709 92681 92662 92649 92638 92630 92629 92643 92673 92707 92727
3797.6335 92728 92719 92717 92744 92829 92995 93241 93483 93580 93497 93330
3802.9368 93166 93029 92919 92825 92744 92682 92660 92701 92797 92895 92951
3808.2400 92962 92941 92900 92851 92801 92764 92753 92775 92820 92871 92904
3813.5435 92902 92859 92777 92678 92600 92582 92610 92641 92647 92629 92597
3818.8467 92568 92565 92624 92764 92934 93026 93007 92930 92847 92779 92728
3824.1499 92687 92649 92610 92574 92553 92553 92574 92604 92631 92651 92666
3829.4531 92687 92726 92789 92868 92930 92941 92901 92828 92750 92686 92646
3834.7566 92624 92600 92558 92503 92459 92462 92540 92673 92811 92914 92968
3840.0598 92976 92951 92910 92873 92852 92848 92853 92853 92841 92818 92795
3845.3630 92776 92757 92731 92693 92650 92614 92599 92605 92620 92627 92614
3850.6663 92584 92558 92573 92675 92895 93167 93317 93271 93120 92955 92816
3855.9697 92720 92678 92693 92746 92805 92838 92833 92800 92751 92703 92664
3861.2729 92632 92596 92551 92504 92470 92473 92528 92623 92711 92754 92753
3866.5762 92730 92703 92688 92701 92765 92894 93048 93124 93073 92938 92772
3871.8794 92614 92490 92430 92459 92559 92661 92704 92682 92629 92576 92543
3877.1829 92534 92548 92579 92623 92672 92709 92711 92676 92630 92600 92593
3882.4861 92603 92612 92606 92575 92526 92483 92477 92516 92577 92632 92668
3887.7893 92683 92679 92661 92636 92616 92616 92641 92677 92701 92701 92690
3893.0925 92688 92704 92732 92756 92754 92718 92655 92581 92512 92462 92441
3898.3960 92451 92488 92538 92589 92628 92644 92627 92574 92498 92431 92408
3903.6992 92451 92555 92687 92795 92846 92834 92776 92697 92616 92548 92498
3909.0024 92469 92457 92457 92466 92479 92495 92513 92534 92555 92569 92570
3914.3057 92553 92522 92490 92476 92495 92540 92582 92594 92569 92524 92485
3919.6091 92476 92504 92548 92581 92586 92563 92528 92499 92494 92517 92557
3924.9124 92591 92602 92588 92556 92517 92477 92444 92420 92401 92383 92362
3930.2156 92343 92334 92346 92385 92444 92507 92554 92580 92584 92573 92549
3935.5188 92516 92476 92435 92402 92387 92396 92425 92466 92505 92533 92545
3940.8223 92543 92536 92529 92529 92533 92532 92519 92494 92465 92442 92436
3946.1255 92455 92496 92549 92597 92623 92619 92584 92525 92459 92404 92375
3951.4287 92376 92403 92447 92495 92539 92575 92605 92631 92650 92660 92655
3956.7319 92629 92584 92525 92461 92406 92371 92364 92385 92426 92476 92520
3962.0354 92549 92563 92565 92561 92558 92558 92566 92579 92592 92596 92580
3967.3386 92543 92494 92450 92430 92445 92490 92548 92599 92630 92637 92624
3972.6418 92599 92569 92537 92508 92482 92463 92455 92457 92469 92485 92501
3977.9451 92514 92520 92519 92515 92511 92515 92530 92556 92584 92605 92610
3983.2485 92596 92570 92544 92528 92525 92531 92535 92532 92525 92518 92517
3988.5518 92518 92511 92488 92450 92408 92381 92379 92401 92435 92467 92489
3993.8550 92500 92505 92507 92504 92496 92483 92469 92460 92457 92455 92447
3999.1582 92425 92388 92345
##END= 
