##TITLE= INCCHININA
##JCAMP-DX= 4.24
##DATA TYPE= INFRARED SPECTRUM
##ORIGIN= JASCO
##OWNER= 
##DATE= 22/04/13
##TIME= 15:55:50
##SPECTROMETER/DATA SYSTEM= 
##RESOLUTION= 
##DELTAX=   0.48211674
##XUNITS= 1/CM
##YUNITS= TRANSMITTANCE
##XFACTOR= 1.00000
##YFACTOR= 1E-005
##FIRSTX=   599.7532
##LASTX=  4000.1226
##NPOINTS=     7054
##FIRSTY=      0.52578
##MAXY=      0.99520
##MINY=      0.43327
##XYDATA= (X++(Y..Y))
599.7532 52578 53981 55405 56683 57697 58387 58773 58934 58977 58986 58976
605.0565 58898 58694 58355 57957 57630 57495 57605 57918 58326 58710 58993
610.3598 59179 59348 59628 60151 60993 62137 63467 64811 66008 66967 67695
615.6631 68274 68808 69371 69984 70620 71239 71813 72326 72762 73094 73294
620.9664 73356 73309 73226 73203 73329 73657 74189 74865 75585 76242 76772
626.2697 77178 77506 77799 78061 78257 78341 78308 78199 78083 78002 77940
631.5729 77834 77613 77251 76777 76257 75751 75282 74836 74378 73870 73289
636.8762 72621 71849 70945 69870 68592 67102 65443 63713 62057 60631 59577
642.1795 58992 58929 59403 60397 61864 63715 65834 68104 70438 72787 75115
647.4828 77364 79443 81252 82738 83920 84868 85640 86243 86631 86755 86605
652.7861 86245 85802 85417 85202 85199 85369 85609 85789 85807 85626 85280
658.0894 84840 84374 83921 83498 83127 82852 82745 82874 83275 83920 84708
663.3926 85467 86001 86166 85941 85415 84729 84019 83427 83162 83528 84456
668.6959 85020 84901 84594 84428 84491 84758 85133 85499 85779 86001 86290
673.9992 86777 87501 88352 89111 89547 89533 89101 88430 87759 87283 87068
679.3025 87027 86966 86680 86066 85187 84257 83546 83255 83433 83964 84629
684.6058 85191 85471 85409 85073 84603 84137 83735 83373 82982 82513 81997
689.9091 81529 81204 81023 80871 80582 80056 79357 78691 78286 78246 78486
695.2123 78788 78941 78877 78706 78637 78845 79386 80199 81192 82312 83562
700.5156 84942 86387 87750 88848 89554 89860 89866 89720 89544 89399 89289
705.8189 89193 89086 88939 88723 88422 88050 87659 87318 87062 86860 86622
711.1222 86250 85689 84955 84096 83139 82066 80826 79386 77750 75955 74040
716.4255 72047 70045 68183 66700 65897 66061 67360 69734 72848 76193 79298
721.7288 81901 83960 85560 86811 87795 88549 89066 89321 89301 89046 88663
727.0320 88307 88123 88183 88455 88822 89143 89322 89345 89277 89210 89211
732.3353 89287 89381 89407 89286 88993 88565 88088 87660 87359 87224 87246
737.6386 87383 87575 87754 87866 87886 87830 87750 87714 87765 87903 88081
742.9419 88234 88310 88293 88195 88040 87844 87612 87352 87081 86824 86603
748.2452 86422 86266 86110 85932 85726 85489 85216 84888 84485 84003 83466
753.5485 82930 82452 82062 81739 81419 81031 80547 80005 79495 79111 78898
758.8517 78832 78845 78876 78920 79028 79286 79771 80515 81496 82636 83814
764.1550 84891 85737 86271 86482 86440 86261 86063 85917 85838 85797 85760
769.4583 85722 85717 85806 86042 86442 86970 87537 88036 88368 88485 88390
774.7616 88134 87784 87398 87012 86643 86299 85992 85736 85535 85379 85245
780.0649 85111 84972 84846 84763 84747 84795 84877 84956 85004 85021 85025
785.3682 85034 85047 85049 85020 84957 84877 84805 84754 84715 84655 84539
790.6714 84346 84084 83787 83499 83252 83056 82886 82695 82433 82065 81584
795.9747 81005 80342 79586 78707 77673 76477 75152 73757 72352 70978 69660
801.2780 68431 67362 66559 66145 66211 66791 67847 69286 70976 72778 74565
806.5813 76241 77754 79098 80300 81393 82401 83320 84129 84804 85327 85704
811.8846 85957 86128 86263 86405 86576 86771 86955 87087 87137 87106 87021
817.1879 86913 86796 86665 86500 86290 86038 85748 85414 84999 84445 83688
822.4911 82676 81374 79755 77783 75427 72697 69708 66728 64166 62494 62093
827.7944 63102 65334 68324 71481 74277 76399 77790 78599 79065 79418 79813
833.0977 80324 80960 81700 82506 83344 84188 85028 85862 86686 87470 88166
838.4010 88719 89105 89344 89492 89602 89691 89732 89681 89515 89264 88997
843.7043 88782 88648 88568 88478 88314 88039 87651 87169 86621 86027 85400
849.0076 84736 84015 83190 82199 80985 79519 77827 75982 74089 72248 70528
854.3109 68945 67468 66046 64646 63290 62075 61169 60778 61092 62236 64235
859.6141 67001 70343 73998 77677 81117 84130 86619 88572 90034 91067 91727
864.9174 92059 92101 91911 91575 91213 90961 90940 91227 91823 92659 93611
870.2207 94543 95337 95921 96270 96401 96358 96193 95954 95676 95371 95036
875.5240 94663 94253 93819 93380 92946 92503 92016 91443 90754 89953 89090
880.8273 88254 87564 87140 87070 87384 88033 88899 89826 90668 91330 91787
886.1306 92072 92241 92344 92403 92419 92385 92309 92216 92136 92086 92059
891.4338 92030 91977 91900 91825 91791 91822 91906 92001 92057 92043 91963
896.7371 91844 91722 91616 91531 91456 91383 91303 91207 91083 90919 90709
902.0404 90457 90180 89902 89649 89437 89266 89118 88962 88764 88508 88207
907.3437 87894 87605 87356 87128 86882 86578 86196 85745 85255 84756 84263
912.6470 83773 83265 82706 82057 81281 80357 79295 78154 77040 76093 75460
917.9503 75252 75515 76217 77249 78457 79669 80729 81521 81983 82109 81950
923.2535 81590 81130 80667 80275 80007 79889 79927 80105 80386 80713 81019
928.5568 81238 81321 81243 81008 80641 80176 79639 79040 78365 77591 76699
933.8601 75696 74621 73545 72550 71708 71056 70586 70243 69938 69569 69054
939.1634 68367 67559 66766 66188 66040 66494 67628 69397 71637 74112 76562
944.4667 78759 80549 81862 82711 83167 83325 83272 83068 82741 82301 81765
949.7700 81167 80568 80047 79680 79521 79591 79872 80315 80860 81448 82031
955.0732 82567 83022 83363 83560 83601 83493 83266 82954 82585 82161 81661
960.3765 81056 80320 79452 78467 77402 76302 75225 74232 73381 72707 72210
965.6798 71858 71605 71429 71351 71430 71726 72257 72968 73739 74427 74918
970.9831 75161 75172 75004 74712 74330 73869 73323 72690 71968 71157 70255
976.2864 69260 68180 67040 65889 64799 63855 63143 62732 62669 62963 63591
981.5897 64496 65599 66813 68054 69249 70337 71266 71992 72485 72736 72761
986.8929 72598 72294 71890 71417 70898 70351 69795 69244 68697 68138 67543
992.1962 66886 66156 65353 64486 63565 62596 61585 60545 59494 58455 57450
997.4995 56493 55594 54765 54025 53405 52946 52686 52657 52868 53305 53934
1002.8028 54699 55530 56344 57049 57560 57809 57758 57416 56835 56102 55330
1008.1061 54637 54132 53901 53993 54404 55069 55870 56653 57262 57574 57525
1013.4094 57119 56415 55511 54512 53517 52608 51844 51266 50889 50700 50659
1018.7126 50698 50741 50710 50550 50226 49734 49090 48325 47481 46608 45760
1024.0160 44992 44351 43867 43546 43374 43327 43386 43552 43847 44307 44960
1029.3192 45822 46884 48122 49499 50972 52487 53984 55393 56650 57706 58542
1034.6226 59172 59637 59996 60316 60661 61083 61618 62282 63075 63986 64995
1039.9258 66079 67208 68351 69473 70546 71552 72480 73330 74099 74792 75410
1045.2291 75961 76447 76874 77244 77569 77870 78171 78492 78837 79190 79524
1050.5323 79819 80071 80291 80491 80669 80813 80902 80921 80873 80777 80656
1055.8357 80530 80408 80291 80174 80058 79947 79847 79758 79667 79552 79392
1061.1389 79179 78925 78657 78406 78185 77985 77779 77538 77240 76882 76474
1066.4423 76030 75561 75074 74571 74055 73526 72989 72453 71930 71429 70948
1071.7455 70465 69947 69358 68689 67960 67225 66540 65947 65447 65018 64625
1077.0488 64252 63900 63589 63335 63140 62993 62881 62806 62791 62876 63103
1082.3521 63497 64048 64709 65410 66077 66664 67163 67602 68033 68508 69063
1087.6554 69709 70424 71158 71855 72486 73064 73640 74257 74897 75467 75844
1092.9586 75969 75924 75921 76205 76906 77962 79142 80174 80880 81247 81402
1098.2620 81515 81707 82021 82434 82907 83408 83915 84411 84881 85322 85740
1103.5652 86150 86549 86914 87206 87396 87488 87520 87545 87602 87695 87793
1108.8685 87853 87845 87763 87630 87475 87318 87164 87009 86852 86697 86552
1114.1718 86421 86297 86170 86029 85873 85704 85523 85329 85115 84877 84616
1119.4751 84330 84014 83656 83248 82786 82275 81722 81123 80466 79740 78954
1124.7783 78145 77385 76756 76327 76119 76097 76174 76225 76133 75818 75261
1130.0817 74513 73682 72902 72301 71973 71953 72214 72677 73240 73803 74295
1135.3849 74676 74936 75082 75128 75095 75010 74904 74810 74755 74758 74830
1140.6882 74980 75213 75528 75914 76350 76813 77288 77777 78288 78830 79401
1145.9915 79985 80563 81124 81667 82201 82731 83243 83706 84079 84327 84438
1151.2948 84429 84348 84255 84207 84245 84379 84597 84874 85190 85538 85924
1156.5980 86352 86816 87290 87741 88142 88488 88793 89080 89367 89661 89955
1161.9014 90236 90497 90736 90955 91160 91359 91557 91755 91947 92122 92270
1167.2046 92383 92465 92520 92561 92596 92637 92696 92786 92914 93071 93239
1172.5079 93394 93517 93605 93667 93713 93749 93768 93761 93720 93642 93528
1177.8112 93379 93199 93000 92808 92657 92585 92613 92740 92943 93186 93433
1183.1145 93653 93826 93933 93962 93906 93770 93573 93347 93127 92950 92839
1188.4177 92810 92866 93003 93212 93479 93785 94110 94433 94735 95002 95226
1193.7211 95407 95546 95651 95723 95764 95773 95748 95691 95607 95500 95371
1199.0243 95215 95021 94778 94479 94127 93728 93290 92825 92346 91878 91451
1204.3276 91104 90869 90764 90786 90909 91092 91288 91451 91549 91564 91496
1209.6309 91356 91172 90981 90823 90735 90737 90834 91010 91238 91488 91734
1214.9342 91952 92121 92216 92215 92099 91856 91482 90980 90356 89622 88793
1220.2374 87894 86953 85998 85048 84105 83148 82133 80999 79681 78124 76305
1225.5408 74245 72018 69746 67595 65746 64373 63606 63501 64029 65090 66536
1230.8440 68215 69993 71769 73470 75040 76435 77620 78563 79241 79635 79731
1236.1473 79521 79005 78195 77109 75764 74184 72389 70418 68325 66200 64160
1241.4506 62354 60949 60123 60037 60808 62471 64954 68077 71585 75193 78643
1246.7539 81742 84387 86559 88302 89696 90826 91763 92553 93225 93785 94230
1252.0571 94550 94733 94772 94663 94409 94015 93492 92856 92141 91402 90717
1257.3605 90177 89865 89841 90119 90670 91422 92277 93142 93948 94664 95290
1262.6637 95835 96306 96698 96999 97204 97318 97356 97336 97269 97159 97003
1267.9670 96804 96577 96348 96148 96004 95933 95945 96041 96218 96469 96784
1273.2703 97151 97551 97961 98354 98703 98991 99212 99368 99466 99513 99520
1278.5736 99494 99444 99379 99307 99234 99167 99112 99072 99048 99033 99017
1283.8768 98988 98935 98855 98748 98620 98478 98329 98179 98032 97887 97738
1289.1802 97576 97395 97195 96983 96770 96563 96363 96163 95952 95720 95466
1294.4834 95189 94895 94584 94256 93907 93529 93123 92692 92249 91813 91406
1299.7867 91050 90761 90547 90410 90346 90345 90393 90474 90576 90694 90835
1305.0900 91011 91238 91522 91861 92240 92633 93006 93330 93579 93744 93827
1310.3933 93838 93790 93693 93553 93379 93185 92990 92811 92649 92493 92319
1315.6965 92103 91829 91494 91097 90637 90099 89469 88748 87966 87184 86477
1320.9999 85913 85546 85408 85516 85863 86420 87138 87958 88817 89662 90449
1326.3031 91147 91736 92204 92553 92792 92936 93000 92993 92916 92766 92544
1331.6064 92258 91925 91566 91199 90837 90484 90141 89819 89537 89324 89202
1336.9097 89179 89239 89348 89458 89522 89488 89321 89006 88561 88016 87401
1342.2130 86747 86087 85470 84956 84604 84463 84555 84872 85373 85995 86669
1347.5162 87340 87980 88585 89168 89739 90296 90823 91295 91687 91975 92146
1352.8196 92196 92126 91943 91662 91300 90880 90424 89951 89481 89034 88637
1358.1228 88313 88068 87894 87766 87655 87536 87390 87207 86978 86701 86387
1363.4261 86065 85770 85524 85338 85221 85182 85242 85427 85759 86244 86855
1368.7294 87532 88195 88781 89264 89653 89976 90259 90528 90805 91120 91500
1374.0327 91954 92455 92951 93406 93813 94189 94551 94908 95256 95584 95878
1379.3359 96134 96355 96547 96713 96854 96965 97045 97094 97115 97118 97109
1384.6393 97096 97079 97056 97025 96979 96917 96841 96759 96678 96599 96525
1389.9425 96457 96399 96353 96316 96277 96221 96131 95992 95796 95547 95275
1395.2458 95016 94785 94575 94374 94179 93999 93861 93796 93815 93895 93998
1400.5491 94097 94180 94247 94291 94312 94306 94278 94237 94192 94154 94127
1405.8524 94109 94097 94087 94081 94081 94094 94123 94168 94220 94267 94297
1411.1556 94305 94295 94279 94267 94265 94269 94276 94280 94277 94264 94237
1416.4590 94189 94115 94005 93848 93628 93348 93044 92771 92546 92350 92160
1421.7622 91956 91720 91427 91053 90598 90091 89562 89008 88394 87674 86827
1427.0656 85857 84785 83605 82266 80698 78903 77036 75356 74066 73241 72902
1432.3688 73070 73741 74805 76053 77286 78431 79563 80875 82509 84258 85635
1437.6721 86452 86888 87155 87369 87557 87709 87810 87865 87901 87951 88036
1442.9753 88160 88310 88464 88596 88682 88706 88660 88547 88383 88206 88068
1448.2787 88007 88017 88061 88100 88109 88071 87976 87813 87581 87288 86950
1453.5819 86582 86194 85794 85384 84967 84555 84177 83872 83632 83399 83127
1458.8853 82813 82481 82157 81864 81619 81431 81301 81222 81186 81193 81252
1464.1885 81369 81511 81612 81611 81500 81287 80966 80507 79882 79091 78174
1469.4918 77187 76165 75106 73985 72812 71748 71157 71277 71891 72656 73444
1474.7950 74317 75404 76784 78370 79910 81193 82196 83025 83788 84539 85278
1480.0984 85969 86577 87085 87499 87829 88079 88248 88341 88366 88337 88267
1485.4016 88170 88061 87958 87876 87820 87784 87758 87748 87784 87907 88124
1490.7050 88383 88626 88830 89004 89154 89280 89375 89433 89457 89453 89434
1496.0082 89408 89373 89313 89207 89036 88792 88491 88160 87820 87458 87036
1501.3115 86519 85898 85203 84483 83775 83075 82349 81537 80536 79168 77266
1506.6147 75083 73286 72129 71502 71318 71538 72124 73056 74363 76115 78336
1511.9181 80899 83492 85767 87545 88867 89881 90731 91515 92287 93057 93779
1517.2213 94357 94745 94974 95100 95167 95211 95275 95409 95647 95919 96118
1522.5247 96225 96277 96301 96312 96321 96340 96377 96427 96472 96499 96506
1527.8279 96504 96505 96513 96521 96522 96507 96475 96426 96365 96300 96248
1533.1312 96231 96256 96303 96343 96363 96365 96356 96344 96330 96318 96307
1538.4344 96298 96286 96262 96221 96169 96116 96065 96018 95975 95934 95892
1543.7378 95847 95801 95756 95716 95678 95640 95594 95539 95471 95386 95279
1549.0410 95151 95010 94876 94766 94677 94596 94510 94410 94291 94155 94017
1554.3444 93902 93819 93755 93694 93623 93538 93434 93302 93138 92981 92922
1559.6476 92946 92984 93011 93024 93021 93000 92961 92905 92835 92767 92717
1564.9509 92697 92700 92704 92693 92659 92601 92521 92418 92292 92157 92040
1570.2542 91958 91898 91841 91771 91677 91551 91396 91224 91049 90888 90767
1575.5575 90733 90822 90988 91139 91237 91301 91349 91388 91414 91416 91390
1580.8607 91335 91256 91158 91044 90916 90778 90633 90486 90334 90171 89982
1586.1641 89753 89467 89116 88695 88211 87673 87092 86468 85791 85048 84237
1591.4674 83383 82537 81778 81195 80874 80885 81254 81952 82898 83986 85111
1596.7706 86188 87159 87985 88654 89173 89559 89834 90015 90119 90163 90167
1602.0740 90150 90122 90082 90023 89933 89808 89644 89446 89218 88968 88705
1607.3772 88434 88154 87859 87541 87190 86804 86385 85939 85463 84944 84368
1612.6805 83730 83052 82371 81723 81109 80484 79748 78776 77591 76482 75706
1617.9838 75240 74975 74858 74896 75111 75501 76032 76680 77487 78589 80142
1623.2871 82102 84084 85686 86831 87667 88351 88991 89641 90311 90959 91517
1628.5903 91945 92256 92490 92686 92865 93033 93179 93288 93353 93380 93384
1633.8937 93384 93404 93470 93585 93704 93778 93814 93833 93847 93854 93846
1639.1969 93821 93787 93763 93767 93804 93856 93882 93843 93718 93512 93241
1644.5002 92920 92563 92194 91871 91691 91733 91975 92321 92682 93009 93286
1649.8035 93513 93695 93841 93957 94050 94157 94387 94815 95197 95388 95476
1655.1068 95523 95552 95571 95584 95601 95630 95678 95749 95835 95923 95998
1660.4100 96054 96091 96114 96137 96175 96237 96320 96408 96487 96547 96581
1665.7134 96583 96559 96516 96470 96432 96404 96377 96326 96239 96127 96017
1671.0166 95937 95901 95907 95935 95962 95965 95929 95843 95716 95592 95512
1676.3199 95472 95443 95409 95366 95318 95273 95238 95216 95201 95188 95172
1681.6232 95156 95140 95126 95112 95089 95046 94998 94966 94951 94946 94945
1686.9265 94947 94949 94948 94941 94926 94907 94892 94887 94894 94909 94925
1692.2297 94935 94934 94922 94898 94866 94831 94806 94813 94856 94903 94926
1697.5331 94922 94896 94852 94799 94763 94799 94911 94991 95001 94970 94921
1702.8363 94861 94794 94717 94634 94554 94493 94473 94497 94550 94607 94649
1708.1396 94673 94683 94687 94687 94677 94651 94607 94555 94504 94463 94433
1713.4429 94408 94381 94349 94316 94293 94289 94311 94365 94458 94581 94692
1718.7462 94763 94802 94826 94843 94855 94862 94863 94860 94857 94854 94847
1724.0494 94830 94799 94757 94717 94695 94702 94736 94785 94830 94859 94870
1729.3528 94868 94865 94861 94850 94825 94784 94738 94704 94711 94761 94786
1734.6560 94721 94595 94460 94346 94261 94203 94160 94119 94071 94023 94000
1739.9594 94024 94089 94169 94242 94294 94318 94306 94259 94190 94118 94059
1745.2626 94016 93985 93960 93937 93912 93886 93860 93833 93806 93781 93766
1750.5659 93777 93821 93887 93945 93972 93964 93927 93875 93820 93775 93749
1755.8691 93745 93757 93778 93798 93812 93820 93822 93818 93808 93796 93788
1761.1725 93796 93822 93853 93866 93848 93804 93745 93688 93644 93619 93608
1766.4757 93608 93613 93628 93655 93689 93716 93726 93715 93690 93662 93652
1771.7791 93681 93742 93798 93818 93804 93769 93725 93683 93650 93627 93612
1777.0823 93600 93590 93581 93576 93573 93571 93563 93545 93519 93490 93465
1782.3856 93446 93435 93431 93436 93452 93480 93515 93554 93588 93615 93630
1787.6888 93633 93624 93604 93574 93537 93496 93457 93429 93428 93462 93518
1792.9922 93572 93604 93613 93606 93594 93585 93583 93588 93599 93610 93616
1798.2954 93611 93591 93560 93529 93518 93539 93588 93648 93697 93719 93718
1803.5988 93707 93703 93715 93736 93756 93758 93736 93691 93635 93583 93547
1808.9020 93530 93531 93540 93547 93544 93532 93516 93503 93496 93494 93497
1814.2053 93507 93526 93557 93593 93621 93630 93613 93582 93558 93563 93605
1819.5085 93675 93753 93815 93843 93829 93783 93723 93669 93635 93630 93655
1824.8119 93703 93757 93798 93822 93830 93829 93825 93822 93824 93835 93848
1830.1151 93846 93817 93762 93698 93647 93634 93675 93769 93887 93985 94023
1835.4185 93987 93890 93771 93676 93638 93659 93707 93742 93735 93680 93596
1840.7217 93510 93448 93414 93398 93377 93335 93273 93216 93199 93229 93284
1846.0250 93342 93387 93412 93418 93419 93429 93459 93502 93538 93544 93503
1851.3282 93422 93329 93260 93240 93263 93305 93332 93324 93283 93232 93195
1856.6316 93188 93206 93230 93241 93229 93198 93167 93153 93167 93205 93249
1861.9348 93278 93277 93251 93224 93221 93253 93305 93342 93327 93249 93128
1867.2382 93013 92959 92992 93096 93218 93306 93345 93345 93319 93274 93216
1872.5414 93152 93101 93082 93104 93160 93226 93275 93286 93253 93182 93092
1877.8447 93002 92929 92882 92861 92859 92865 92866 92858 92841 92817 92790
1883.1479 92758 92723 92687 92659 92648 92661 92694 92733 92762 92769 92751
1888.4513 92718 92689 92685 92719 92788 92879 92976 93065 93129 93159 93157
1893.7545 93139 93131 93151 93197 93250 93287 93296 93283 93260 93238 93216
1899.0579 93186 93141 93083 93027 92992 92997 93043 93109 93157 93147 93062
1904.3611 92922 92780 92695 92701 92791 92922 93042 93117 93138 93116 93058
1909.6644 92963 92828 92664 92502 92379 92322 92339 92417 92525 92626 92684
1914.9677 92683 92626 92540 92465 92437 92468 92537 92597 92617 92601 92573
1920.2710 92549 92530 92505 92473 92452 92471 92550 92670 92791 92880 92928
1925.5742 92952 92970 92989 92996 92974 92916 92842 92787 92778 92821 92896
1930.8776 92978 93050 93112 93172 93232 93284 93315 93320 93304 93277 93236
1936.1808 93171 93067 92928 92784 92682 92655 92702 92788 92869 92920 92958
1941.4841 93020 93132 93269 93355 93325 93174 92955 92743 92598 92529 92495
1946.7874 92438 92327 92191 92100 92126 92297 92584 92912 93198 93370 93391
1952.0907 93254 92991 92673 92403 92284 92372 92635 92945 93139 93097 92811
1957.3939 92381 91961 91679 91584 91644 91788 91959 92146 92365 92626 92899
1962.6973 93122 93230 93201 93081 92958 92918 93000 93174 93365 93500 93562
1968.0005 93592 93652 93770 93920 94038 94057 93938 93692 93368 93036 92759
1973.3038 92576 92496 92502 92561 92639 92717 92781 92825 92844 92850 92874
1978.6071 92959 93119 93311 93445 93434 93249 92950 92658 92480 92452 92512
1983.9104 92558 92523 92431 92375 92449 92674 92975 93217 93275 93109 92783
1989.2136 92420 92125 91951 91897 91934 92024 92137 92266 92427 92643 92921
1994.5170 93234 93512 93666 93633 93419 93110 92823 92646 92593 92603 92582
1999.8202 92464 92246 91991 91789 91715 91802 92033 92357 92708 93038 93335
2005.1235 93625 93945 94307 94656 94873 94835 94500 93949 93353 92886 92641
2010.4268 92605 92699 92848 93026 93257 93542 93813 93923 93728 93174 92345
2015.7301 91438 90683 90239 90150 90357 90770 91334 92033 92840 93676 94395
2021.0333 94837 94890 94554 93946 93267 92722 92439 92418 92543 92642 92581
2026.3367 92334 92001 91751 91726 91960 92353 92721 92891 92799 92517 92217
2031.6399 92074 92191 92554 93045 93502 93792 93864 93760 93578 93415 93326
2036.9432 93311 93329 93324 93251 93089 92841 92520 92146 91743 91340 90976
2042.2465 90701 90570 90633 90912 91376 91922 92397 92648 92595 92271 91812
2047.5498 91398 91164 91148 91298 91519 91734 91907 92027 92079 92037 91886
2052.8530 91647 91393 91214 91165 91233 91341 91404 91383 91303 91231 91222
2058.1563 91287 91393 91491 91556 91601 91661 91756 91874 91972 91999 91928
2063.4597 91770 91566 91375 91246 91203 91236 91314 91389 91422 91394 91313
2068.7629 91216 91147 91138 91189 91272 91341 91361 91326 91258 91193 91156
2074.0662 91144 91136 91107 91054 91000 90984 91035 91147 91278 91368 91368
2079.3694 91264 91083 90883 90729 90667 90709 90824 90949 91014 90967 90804
2084.6729 90569 90338 90185 90148 90215 90337 90455 90535 90581 90621 90682
2089.9761 90766 90842 90869 90814 90683 90517 90380 90325 90373 90493 90621
2095.2793 90695 90685 90617 90551 90541 90596 90669 90689 90603 90416 90186
2100.5825 89996 89912 89957 90112 90328 90549 90716 90785 90736 90592 90412
2105.8860 90267 90209 90239 90315 90377 90385 90337 90261 90194 90158 90157
2111.1892 90181 90218 90250 90261 90230 90148 90022 89883 89775 89742 89798
2116.4924 89923 90068 90176 90216 90200 90174 90188 90264 90375 90454 90437
2121.7957 90296 90062 89810 89621 89547 89590 89705 89832 89921 89951 89935
2127.0991 89900 89872 89854 89826 89759 89642 89500 89394 89391 89529 89788
2132.4023 90089 90329 90436 90412 90330 90279 90299 90340 90293 90078 89716
2137.7056 89344 89134 89193 89488 89872 90179 90328 90351 90339 90347 90353
2143.0088 90288 90104 89827 89544 89350 89293 89366 89518 89684 89795 89803
2148.3123 89707 89577 89535 89688 90036 90439 90668 90537 90022 89282 88581
2153.6155 88160 88165 88625 89466 90514 91486 92040 91891 90984 89586 88211
2158.9187 87362 87245 87687 88326 88886 89301 89635 89947 90205 90328 90283
2164.2219 90137 90031 90073 90259 90472 90561 90444 90145 89773 89451 89266
2169.5254 89266 89463 89844 90352 90872 91251 91361 91169 90772 90351 90078
2174.8286 90010 90076 90128 90044 89800 89466 89146 88903 88731 88575 88387
2180.1318 88172 87994 87934 88036 88262 88508 88672 88721 88712 88738 88849
2185.4351 89002 89104 89099 89031 89002 89044 89013 88622 87636 86117 84470
2190.7385 83257 82901 83488 84745 86189 87373 88092 88415 88549 88662 88784
2196.0417 88850 88798 88648 88495 88447 88542 88720 88848 88800 88532 88108
2201.3450 87662 87321 87144 87107 87134 87150 87116 87038 86948 86880 86859
2206.6482 86900 87005 87150 87291 87376 87374 87300 87203 87143 87151 87220
2211.9517 87318 87415 87497 87556 87576 87527 87385 87161 86913 86729 86671
2217.2549 86740 86859 86912 86800 86496 86061 85622 85310 85213 85351 85681
2222.5581 86122 86581 86968 87209 87257 87107 86801 86427 86095 85908 85924
2227.8613 86131 86448 86749 86914 86883 86684 86418 86206 86126 86175 86280
2233.1648 86349 86322 86201 86045 85926 85895 85957 86078 86205 86296 86338
2238.4680 86345 86345 86358 86384 86405 86410 86403 86408 86444 86504 86551
2243.7712 86533 86421 86232 86028 85892 85885 86018 86242 86473 86622 86634
2249.0745 86505 86279 86025 85816 85705 85720 85863 86110 86406 86672 86825
2254.3779 86811 86627 86337 86041 85835 85761 85802 85901 85995 86051 86062
2259.6812 86045 86018 85995 85989 86008 86046 86079 86069 85988 85842 85679
2264.9844 85565 85544 85610 85706 85763 85746 85667 85573 85507 85477 85456
2270.2876 85414 85348 85286 85271 85320 85415 85506 85542 85501 85393 85255
2275.5911 85123 85025 84971 84960 84981 85024 85072 85115 85149 85179 85219
2280.8943 85280 85359 85443 85506 85527 85493 85408 85285 85148 85020 84920
2286.1975 84856 84829 84834 84863 84908 84959 85010 85055 85089 85116 85135
2291.5007 85150 85158 85160 85155 85145 85134 85121 85101 85066 85016 84959
2296.8042 84913 84895 84913 84958 85012 85052 85064 85042 84997 84945 84901
2302.1074 84880 84887 84917 84961 85007 85046 85076 85095 85105 85103 85084
2307.4106 85048 85001 84953 84917 84904 84914 84944 84981 85009 85014 84982
2312.7139 84913 84817 84715 84634 84596 84608 84665 84750 84842 84925 84986
2318.0173 85018 85019 84995 84961 84942 84961 85026 85120 85207 85246 85215
2323.3206 85119 84991 84866 84766 84698 84655 84632 84631 84654 84699 84750
2328.6238 84785 84787 84752 84694 84637 84602 84602 84637 84697 84770 84837
2333.9270 84881 84893 84872 84830 84782 84743 84716 84691 84658 84615 84571
2339.2305 84540 84532 84548 84582 84632 84699 84784 84876 84945 84958 84900
2344.5337 84798 84711 84701 84795 84956 85111 85199 85196 85114 84984 84849
2349.8369 84758 84759 84880 85100 85353 85548 85625 85571 85428 85266 85152
2355.1401 85120 85154 85204 85211 85141 85002 84837 84705 84665 84757 84986
2360.4436 85311 85655 85924 86056 86046 85955 85874 85856 85890 85905 85837
2365.7468 85681 85501 85388 85400 85523 85686 85806 85837 85782 85673 85548
2371.0500 85431 85332 85256 85208 85193 85211 85253 85306 85352 85382 85391
2376.3533 85385 85378 85387 85418 85468 85521 85558 85567 85550 85518 85482
2381.6567 85452 85427 85406 85390 85379 85377 85383 85395 85408 85421 85433
2386.9600 85446 85457 85462 85456 85439 85415 85393 85381 85386 85409 85450
2392.2632 85504 85565 85628 85689 85743 85791 85832 85867 85895 85913 85922
2397.5664 85927 85936 85957 85993 86040 86087 86123 86140 86141 86134 86128
2402.8699 86130 86142 86162 86187 86214 86238 86258 86275 86293 86314 86340
2408.1731 86365 86385 86397 86405 86419 86446 86485 86526 86556 86563 86548
2413.4763 86513 86468 86421 86378 86349 86341 86352 86376 86395 86392 86357
2418.7795 86295 86221 86154 86110 86098 86122 86177 86252 86330 86394 86431
2424.0830 86439 86425 86398 86371 86346 86326 86314 86315 86336 86374 86422
2429.3862 86462 86480 86473 86444 86407 86372 86342 86317 86291 86265 86247
2434.6895 86248 86275 86326 86388 86445 86488 86520 86555 86605 86672 86742
2439.9927 86792 86803 86772 86716 86657 86616 86597 86594 86591 86580 86561
2445.2961 86542 86533 86535 86547 86563 86578 86588 86594 86596 86594 86591
2450.5994 86593 86604 86626 86654 86678 86690 86689 86679 86673 86676 86692
2455.9026 86713 86733 86750 86765 86779 86792 86799 86795 86776 86742 86700
2461.2058 86661 86636 86638 86670 86727 86791 86835 86841 86807 86749 86692
2466.5093 86660 86659 86681 86712 86741 86768 86797 86828 86858 86882 86899
2471.8125 86916 86944 86990 87048 87101 87135 87144 87136 87132 87148 87189
2477.1157 87245 87293 87316 87305 87269 87229 87206 87211 87243 87291 87340
2482.4189 87380 87405 87418 87427 87441 87469 87518 87588 87672 87752 87809
2487.7224 87831 87815 87775 87725 87680 87646 87624 87610 87602 87599 87598
2493.0256 87592 87577 87551 87521 87497 87492 87517 87569 87645 87730 87812
2498.3289 87878 87916 87923 87904 87872 87846 87843 87869 87918 87971 88010
2503.6321 88026 88023 88017 88022 88044 88075 88103 88118 88118 88111 88110
2508.9355 88127 88162 88210 88259 88296 88315 88316 88306 88293 88285 88286
2514.2388 88299 88327 88376 88443 88518 88580 88608 88599 88566 88540 88548
2519.5420 88598 88670 88732 88756 88733 88676 88608 88550 88515 88504 88515
2524.8452 88543 88576 88601 88603 88575 88526 88475 88444 88444 88470 88503
2530.1487 88524 88529 88529 88548 88605 88701 88816 88915 88967 88961 88908
2535.4519 88839 88786 88766 88779 88811 88844 88866 88880 88895 88924 88975
2540.7551 89047 89131 89211 89272 89305 89313 89307 89302 89306 89320 89338
2546.0583 89353 89363 89373 89384 89398 89413 89429 89446 89465 89483 89495
2551.3618 89498 89495 89497 89516 89556 89607 89650 89666 89644 89590 89517
2556.6650 89443 89385 89351 89347 89370 89409 89444 89461 89450 89418 89378
2561.9683 89346 89327 89318 89311 89300 89288 89284 89294 89317 89349 89380
2567.2715 89409 89437 89469 89501 89523 89521 89486 89419 89337 89261 89208
2572.5750 89182 89176 89172 89160 89134 89100 89071 89057 89068 89103 89156
2577.8782 89215 89265 89295 89300 89287 89270 89267 89291 89346 89422 89502
2583.1814 89563 89594 89593 89571 89543 89524 89522 89538 89569 89608 89651
2588.4849 89689 89715 89722 89714 89699 89696 89716 89764 89828 89892 89941
2593.7881 89968 89979 89986 89993 90004 90017 90030 90048 90074 90104 90131
2599.0913 90143 90132 90100 90058 90022 90005 90011 90039 90079 90119 90149
2604.3945 90164 90161 90147 90130 90124 90138 90177 90241 90321 90405 90479
2609.6980 90534 90566 90581 90587 90596 90611 90632 90652 90662 90660 90647
2615.0012 90628 90613 90605 90604 90609 90617 90630 90649 90680 90719 90760
2620.3044 90795 90814 90816 90805 90791 90779 90776 90784 90800 90822 90846
2625.6077 90864 90875 90876 90873 90873 90884 90909 90945 90986 91024 91054
2630.9111 91073 91085 91094 91104 91118 91133 91148 91159 91166 91168 91167
2636.2144 91163 91157 91154 91158 91178 91214 91262 91307 91331 91321 91280
2641.5176 91223 91176 91160 91186 91245 91318 91381 91416 91421 91402 91376
2646.8208 91358 91361 91385 91422 91461 91490 91507 91516 91523 91536 91552
2652.1243 91566 91572 91567 91557 91550 91549 91556 91564 91571 91577 91587
2657.4275 91606 91634 91664 91685 91689 91675 91646 91612 91581 91559 91548
2662.7307 91549 91565 91593 91629 91666 91696 91715 91724 91729 91734 91746
2668.0339 91763 91781 91795 91802 91800 91790 91774 91752 91722 91687 91654
2673.3374 91636 91649 91699 91778 91867 91940 91979 91978 91948 91908 91872
2678.6406 91852 91847 91857 91877 91903 91930 91953 91967 91971 91969 91967
2683.9438 91968 91973 91980 91990 92003 92020 92039 92054 92060 92053 92036
2689.2471 92017 92004 92001 92009 92024 92042 92058 92070 92076 92074 92064
2694.5505 92049 92034 92026 92028 92041 92059 92076 92087 92090 92088 92087
2699.8538 92093 92109 92131 92152 92163 92159 92143 92128 92129 92162 92227
2705.1570 92314 92401 92462 92480 92454 92395 92328 92277 92254 92260 92285
2710.4602 92314 92338 92355 92372 92392 92417 92438 92447 92438 92415 92387
2715.7637 92365 92356 92361 92375 92392 92407 92419 92430 92441 92454 92465
2721.0669 92470 92463 92444 92415 92385 92365 92362 92376 92402 92430 92450
2726.3701 92461 92465 92469 92475 92485 92491 92483 92454 92405 92346 92292
2731.6733 92254 92236 92237 92250 92272 92296 92316 92324 92313 92287 92262
2736.9768 92262 92302 92378 92458 92505 92489 92410 92294 92182 92108 92080
2742.2800 92089 92112 92130 92134 92127 92118 92117 92124 92134 92140 92135
2747.5833 92121 92105 92099 92110 92138 92174 92209 92235 92250 92254 92251
2752.8865 92242 92231 92224 92226 92240 92261 92287 92312 92336 92362 92388
2758.1899 92406 92404 92374 92316 92249 92192 92164 92167 92189 92213 92224
2763.4932 92222 92213 92211 92223 92247 92275 92296 92303 92291 92262 92221
2768.7964 92173 92125 92086 92060 92050 92057 92076 92101 92127 92151 92170
2774.0996 92181 92183 92171 92145 92108 92065 92024 91989 91963 91944 91932
2779.4031 91929 91938 91958 91985 92010 92024 92021 92006 91988 91978 91981
2784.7063 91993 92005 92009 92006 92005 92016 92044 92086 92132 92167 92188
2790.0095 92195 92198 92206 92222 92245 92268 92284 92293 92298 92304 92315
2795.3127 92331 92347 92360 92367 92370 92372 92375 92374 92364 92342 92309
2800.6162 92274 92250 92248 92274 92322 92379 92426 92451 92448 92424 92393
2805.9194 92371 92367 92382 92406 92428 92439 92439 92434 92429 92430 92438
2811.2227 92455 92480 92510 92539 92557 92560 92547 92523 92498 92477 92460
2816.5259 92443 92426 92410 92400 92399 92404 92407 92403 92392 92378 92368
2821.8293 92364 92360 92344 92308 92253 92185 92116 92055 92007 91966 91927
2827.1326 91884 91834 91778 91716 91650 91581 91512 91442 91375 91316 91269
2832.4358 91238 91220 91204 91175 91119 91031 90922 90807 90707 90638 90605
2837.7390 90605 90632 90674 90723 90770 90811 90846 90878 90911 90947 90988
2843.0425 91032 91081 91139 91206 91278 91348 91405 91446 91474 91498 91526
2848.3457 91562 91600 91628 91638 91627 91604 91581 91570 91575 91590 91603
2853.6489 91601 91582 91551 91520 91499 91489 91484 91471 91439 91388 91326
2858.9521 91263 91214 91183 91173 91177 91187 91192 91184 91156 91105 91035
2864.2556 90948 90854 90760 90673 90597 90532 90478 90427 90372 90308 90232
2869.5588 90147 90059 89973 89894 89820 89746 89669 89587 89504 89426 89362
2874.8621 89319 89303 89313 89341 89376 89407 89424 89428 89423 89419 89423
2880.1653 89438 89461 89485 89504 89516 89521 89519 89512 89502 89493 89489
2885.4688 89493 89507 89526 89546 89566 89587 89611 89640 89669 89690 89699
2890.7720 89692 89675 89655 89638 89627 89621 89617 89614 89607 89593 89567
2896.0752 89528 89476 89420 89364 89314 89268 89220 89171 89129 89104 89109
2901.3784 89146 89205 89269 89324 89366 89403 89450 89521 89619 89733 89845
2906.6819 89939 90006 90053 90091 90132 90181 90234 90282 90318 90335 90338
2911.9851 90330 90322 90320 90329 90351 90383 90419 90450 90468 90471 90460
2917.2883 90439 90408 90367 90314 90250 90177 90105 90042 89996 89972 89967
2922.5916 89978 89993 90003 89994 89962 89905 89831 89750 89672 89603 89544
2927.8950 89492 89446 89403 89363 89321 89272 89212 89141 89065 88995 88947
2933.1982 88927 88937 88967 89001 89021 89017 88986 88939 88891 88859 88849
2938.5015 88861 88886 88911 88927 88931 88927 88921 88916 88915 88913 88908
2943.8047 88895 88875 88850 88824 88803 88791 88790 88802 88827 88863 88904
2949.1082 88944 88981 89013 89046 89086 89139 89203 89274 89346 89414 89476
2954.4114 89529 89569 89590 89586 89554 89497 89427 89356 89294 89248 89215
2959.7146 89191 89169 89143 89107 89058 88992 88907 88806 88699 88598 88518
2965.0178 88468 88444 88437 88430 88416 88394 88374 88367 88377 88401 88423
2970.3213 88427 88402 88347 88275 88207 88163 88156 88185 88235 88290 88334
2975.6245 88361 88377 88392 88416 88455 88508 88568 88629 88687 88743 88801
2980.9277 88863 88931 89001 89069 89130 89183 89230 89274 89315 89356 89401
2986.2310 89457 89528 89611 89696 89763 89795 89790 89758 89724 89711 89732
2991.5344 89779 89833 89865 89856 89802 89716 89622 89544 89498 89485 89494
2996.8376 89513 89534 89557 89586 89626 89677 89736 89798 89858 89911 89956
3002.1409 89991 90018 90043 90071 90105 90145 90187 90225 90259 90288 90313
3007.4441 90333 90346 90348 90341 90329 90319 90312 90305 90290 90258 90208
3012.7476 90143 90076 90020 89983 89968 89972 89984 89996 90002 90002 90004
3018.0508 90021 90058 90116 90186 90253 90304 90335 90350 90361 90383 90423
3023.3540 90481 90549 90616 90674 90716 90740 90745 90736 90714 90683 90646
3028.6572 90603 90553 90495 90429 90362 90301 90260 90249 90272 90322 90383
3033.9607 90433 90455 90437 90382 90301 90210 90122 90047 89987 89942 89909
3039.2639 89886 89875 89879 89893 89907 89906 89880 89834 89786 89758 89769
3044.5671 89817 89886 89951 89992 90006 90001 89992 89990 90003 90032 90075
3049.8704 90130 90192 90253 90304 90336 90346 90335 90309 90277 90247 90230
3055.1738 90230 90246 90268 90282 90275 90244 90193 90136 90086 90050 90031
3060.4771 90027 90036 90055 90078 90096 90098 90077 90032 89971 89911 89866
3065.7803 89848 89857 89882 89907 89912 89886 89829 89750 89668 89596 89537
3071.0835 89483 89414 89316 89186 89038 88898 88794 88742 88742 88776 88818
3076.3870 88849 88862 88864 88867 88880 88908 88950 89003 89064 89131 89199
3081.6902 89261 89313 89352 89382 89409 89437 89463 89481 89483 89467 89440
3086.9934 89412 89395 89396 89416 89445 89472 89489 89492 89483 89465 89443
3092.2966 89415 89384 89354 89335 89333 89347 89365 89367 89340 89285 89217
3097.6001 89155 89116 89104 89112 89129 89148 89168 89189 89207 89215 89200
3102.9033 89158 89094 89022 88959 88914 88884 88859 88828 88788 88744 88709
3108.2065 88690 88683 88674 88650 88602 88536 88466 88408 88371 88355 88350
3113.5098 88347 88338 88323 88307 88295 88288 88284 88278 88265 88243 88210
3118.8132 88164 88101 88020 87924 87828 87754 87722 87742 87804 87879 87934
3124.1165 87941 87893 87802 87697 87609 87562 87563 87600 87651 87691 87703
3129.4197 87684 87640 87584 87526 87471 87419 87367 87317 87275 87244 87226
3134.7229 87214 87204 87190 87172 87152 87135 87123 87116 87113 87111 87106
3140.0264 87093 87071 87039 87001 86965 86938 86920 86907 86889 86859 86818
3145.3296 86774 86735 86708 86692 86681 86669 86654 86637 86618 86598 86578
3150.6328 86557 86539 86528 86528 86535 86543 86544 86533 86511 86484 86460
3155.9360 86444 86435 86427 86418 86408 86404 86411 86428 86443 86440 86408
3161.2395 86345 86262 86177 86104 86053 86025 86017 86026 86046 86072 86097
3166.5427 86113 86115 86107 86094 86088 86098 86126 86170 86218 86260 86287
3171.8459 86296 86287 86261 86226 86185 86146 86113 86087 86067 86050 86040
3177.1492 86043 86071 86126 86202 86280 86340 86368 86359 86317 86254 86184
3182.4526 86123 86082 86069 86079 86098 86112 86116 86117 86136 86187 86271
3187.7559 86370 86463 86534 86581 86608 86619 86611 86579 86525 86462 86413
3193.0591 86393 86403 86428 86450 86458 86455 86458 86479 86521 86576 86629
3198.3623 86672 86706 86735 86762 86785 86796 86788 86767 86746 86747 86783
3203.6658 86855 86952 87052 87136 87190 87213 87212 87198 87184 87180 87194
3208.9690 87228 87276 87320 87343 87334 87297 87255 87236 87261 87329 87417
3214.2722 87493 87533 87539 87530 87532 87559 87609 87670 87733 87796 87864
3219.5754 87929 87974 87975 87917 87810 87687 87591 87552 87583 87670 87790
3224.8789 87918 88033 88122 88177 88197 88190 88172 88161 88169 88203 88262
3230.1821 88336 88410 88463 88480 88454 88394 88327 88278 88267 88293 88341
3235.4854 88396 88448 88498 88548 88598 88639 88664 88670 88664 88653 88639
3240.7886 88618 88584 88542 88504 88486 88493 88515 88533 88530 88501 88460
3246.0920 88429 88426 88456 88517 88598 88684 88756 88795 88787 88733 88653
3251.3953 88576 88526 88510 88517 88527 88532 88541 88571 88630 88703 88755
3256.6985 88752 88687 88587 88499 88463 88491 88559 88627 88666 88670 88654
3262.0017 88641 88642 88653 88661 88654 88632 88600 88569 88547 88538 88541
3267.3052 88554 88573 88593 88614 88637 88664 88696 88727 88749 88754 88741
3272.6084 88721 88707 88711 88736 88770 88798 88808 88801 88791 88793 88813
3277.9116 88844 88867 88867 88845 88820 88818 88848 88892 88918 88906 88884
3283.2148 88921 89092 89418 89826 90171 90309 90175 89829 89419 89098 88945
3288.5183 88937 88986 89010 88982 88934 88919 88965 89058 89152 89210 89218
3293.8215 89194 89164 89151 89160 89183 89210 89229 89233 89216 89177 89119
3299.1248 89053 88995 88963 88967 89008 89070 89131 89172 89187 89187 89192
3304.4280 89220 89273 89334 89382 89402 89396 89383 89382 89405 89448 89495
3309.7314 89533 89558 89575 89593 89615 89636 89651 89659 89664 89675 89696
3315.0347 89725 89753 89772 89780 89782 89785 89792 89805 89824 89849 89889
3320.3379 89945 90015 90083 90129 90137 90108 90053 89995 89952 89932 89938
3325.6411 89964 90005 90053 90093 90110 90090 90034 89954 89870 89801 89753
3330.9446 89722 89699 89677 89658 89646 89644 89651 89659 89660 89646 89618
3336.2478 89580 89542 89513 89498 89496 89500 89501 89490 89460 89410 89342
3341.5510 89263 89184 89118 89078 89072 89099 89148 89199 89233 89232 89190
3346.8542 89111 89009 88908 88833 88804 88828 88898 88993 89088 89163 89208
3352.1577 89223 89215 89192 89164 89140 89130 89138 89162 89191 89214 89222
3357.4609 89211 89186 89153 89115 89076 89039 89012 89006 89025 89065 89112
3362.7642 89150 89170 89174 89172 89174 89181 89183 89171 89143 89109 89089
3368.0674 89099 89138 89192 89236 89253 89238 89203 89167 89144 89137 89143
3373.3708 89158 89177 89200 89226 89250 89263 89259 89239 89213 89194 89192
3378.6741 89208 89235 89264 89288 89307 89323 89339 89356 89370 89377 89376
3383.9773 89366 89351 89335 89324 89323 89334 89352 89370 89380 89375 89360
3389.2805 89346 89344 89364 89403 89454 89505 89546 89571 89577 89566 89538
3394.5840 89497 89453 89422 89422 89464 89547 89648 89739 89795 89808 89785
3399.8872 89747 89716 89706 89719 89747 89780 89811 89834 89852 89863 89867
3405.1904 89862 89849 89832 89822 89828 89858 89910 89974 90040 90099 90149
3410.4937 90192 90226 90248 90251 90228 90183 90125 90069 90031 90021 90042
3415.7971 90090 90153 90219 90278 90327 90365 90392 90408 90412 90405 90395
3421.1003 90393 90409 90444 90491 90538 90575 90599 90614 90623 90626 90620
3426.4036 90605 90585 90570 90564 90570 90580 90585 90579 90560 90533 90505
3431.7068 90486 90483 90500 90535 90581 90627 90666 90696 90718 90733 90739
3437.0103 90733 90714 90688 90667 90666 90693 90745 90809 90866 90899 90899
3442.3135 90870 90823 90772 90731 90707 90700 90711 90734 90766 90797 90823
3447.6167 90839 90852 90867 90888 90914 90938 90955 90966 90978 90997 91019
3452.9199 91028 91005 90944 90857 90776 90730 90735 90779 90834 90874 90887
3458.2234 90881 90874 90882 90910 90954 91001 91042 91070 91081 91079 91070
3463.5266 91062 91060 91066 91077 91087 91088 91076 91052 91019 90989 90974
3468.8298 90986 91032 91106 91194 91270 91313 91310 91266 91201 91141 91107
3474.1331 91107 91134 91173 91207 91222 91214 91185 91139 91083 91027 90984
3479.4365 90966 90986 91046 91136 91230 91299 91322 91306 91274 91261 91289
3484.7397 91356 91433 91482 91476 91414 91323 91241 91197 91190 91203 91211
3490.0430 91203 91185 91175 91188 91225 91272 91308 91315 91289 91239 91187
3495.3462 91160 91171 91222 91292 91354 91388 91387 91363 91336 91325 91337
3500.6497 91364 91386 91388 91367 91341 91335 91368 91433 91507 91560 91572
3505.9529 91550 91519 91509 91542 91618 91711 91783 91803 91762 91681 91594
3511.2561 91532 91514 91542 91604 91677 91740 91777 91785 91764 91723 91669
3516.5593 91613 91565 91539 91544 91583 91644 91707 91753 91771 91760 91726
3521.8628 91679 91631 91593 91578 91596 91644 91709 91771 91809 91811 91782
3527.1660 91742 91715 91717 91745 91784 91815 91821 91796 91744 91674 91603
3532.4692 91543 91504 91486 91482 91484 91487 91496 91518 91561 91622 91686
3537.7725 91737 91757 91742 91698 91642 91594 91569 91567 91575 91573 91544
3543.0759 91484 91404 91330 91287 91294 91353 91449 91559 91660 91735 91775
3548.3792 91782 91762 91726 91683 91643 91616 91607 91615 91631 91643 91644
3553.6824 91634 91625 91632 91662 91714 91772 91812 91817 91782 91719 91652
3558.9856 91607 91599 91630 91689 91754 91809 91845 91857 91847 91816 91767
3564.2891 91703 91631 91567 91537 91568 91669 91812 91945 92025 92048 92031
3569.5923 92000 91974 91958 91949 91936 91914 91885 91854 91829 91810 91793
3574.8955 91775 91756 91742 91738 91741 91749 91757 91773 91810 91876 91967
3580.1990 92059 92121 92133 92095 92028 91964 91927 91929 91958 91993 92013
3585.5022 92002 91958 91898 91849 91841 91878 91940 91999 92037 92049 92041
3590.8054 92022 91998 91971 91943 91913 91890 91881 91896 91934 91987 92038
3596.1086 92073 92088 92087 92079 92076 92085 92107 92133 92146 92131 92086
3601.4121 92025 91972 91948 91956 91984 92010 92019 92007 91983 91962 91959
3606.7153 91984 92036 92113 92200 92276 92316 92304 92239 92132 92000 91866
3612.0186 91763 91725 91768 91870 91986 92081 92141 92170 92182 92187 92190
3617.3218 92186 92170 92142 92115 92105 92120 92153 92197 92247 92302 92357
3622.6252 92399 92413 92386 92318 92224 92125 92038 91968 91914 91876 91866
3627.9285 91915 92043 92206 92314 92337 92314 92283 92261 92248 92234 92205
3633.2317 92158 92101 92051 92017 91996 91980 91965 91956 91963 91995 92048
3638.5349 92106 92147 92159 92141 92103 92061 92028 92012 92009 92014 92018
3643.8384 92020 92021 92023 92025 92025 92017 91995 91959 91920 91893 91889
3649.1416 91912 91949 91981 91989 91978 91962 91954 91954 91960 91969 91978
3654.4448 91989 92006 92024 92030 92013 91976 91938 91914 91909 91922 91947
3659.7480 91980 92024 92084 92156 92228 92280 92296 92282 92254 92234 92228
3665.0515 92225 92204 92150 92065 91960 91849 91745 91655 91598 91603 91695
3670.3547 91843 91970 92021 91996 91924 91842 91785 91799 91939 92229 92537
3675.6580 92642 92541 92363 92184 92026 91895 91801 91756 91764 91810 91871
3680.9612 91925 91962 91984 91995 92006 92021 92041 92056 92052 92023 91971
3686.2646 91909 91858 91846 91893 91983 92070 92119 92132 92128 92120 92112
3691.5679 92099 92079 92052 92022 91990 91956 91920 91888 91869 91871 91896
3696.8711 91936 91977 92003 92005 91982 91936 91874 91811 91774 91793 91877
3702.1743 91990 92078 92109 92081 92019 91957 91927 91942 91985 92029 92056
3707.4778 92062 92054 92038 92007 91947 91855 91755 91696 91731 91870 92041
3712.7810 92155 92182 92144 92078 92011 91960 91931 91920 91925 91948 91987
3718.0842 92034 92064 92055 92000 91914 91822 91749 91712 91711 91726 91736
3723.3875 91736 91737 91751 91785 91835 91889 91936 91977 92017 92057 92089
3728.6909 92101 92087 92051 92010 91993 92023 92098 92177 92212 92180 92090
3733.9941 91970 91858 91795 91797 91831 91850 91833 91784 91724 91674 91656
3739.2974 91684 91758 91866 91971 92033 92029 91956 91825 91665 91545 91589
3744.6006 91808 92014 92093 92060 91950 91784 91584 91388 91266 91288 91446
3749.9041 91657 91849 92004 92133 92235 92289 92282 92232 92163 92100 92057
3755.2073 92044 92059 92081 92085 92055 91999 91935 91894 91899 91953 92030
3760.5105 92092 92122 92118 92084 92027 91956 91878 91806 91758 91751 91795
3765.8137 91872 91945 91985 91988 91967 91941 91933 91955 91998 92030 92038
3771.1172 92028 92017 92017 92025 92034 92033 92017 91990 91962 91937 91919
3776.4204 91903 91887 91873 91860 91851 91843 91833 91819 91798 91770 91739
3781.7236 91707 91685 91688 91728 91812 91922 92026 92090 92099 92065 92010
3787.0269 91954 91912 91886 91875 91879 91897 91929 91966 91998 92009 91992
3792.3303 91946 91881 91810 91744 91691 91657 91650 91678 91737 91803 91848
3797.6335 91855 91825 91773 91712 91658 91629 91640 91691 91754 91794 91805
3802.9368 91798 91778 91750 91717 91693 91699 91758 91865 91961 91974 91904
3808.2400 91804 91728 91706 91738 91801 91854 91869 91843 91799 91764 91754
3813.5435 91765 91785 91804 91822 91843 91867 91881 91876 91851 91815 91773
3818.8467 91735 91709 91714 91775 91891 92012 92083 92093 92060 92002 91935
3824.1499 91874 91830 91813 91826 91866 91921 91970 91992 91969 91898 91787
3829.4531 91663 91572 91570 91676 91822 91880 91765 91484 91115 90775 90597
3834.7566 90650 90887 91184 91435 91595 91672 91704 91725 91754 91791 91836
3840.0598 91889 91940 91977 91993 91991 91982 91971 91954 91920 91860 91785
3845.3630 91715 91669 91659 91685 91735 91790 91831 91852 91856 91849 91839
3850.6663 91828 91816 91810 91821 91873 91969 92056 92070 92017 91934 91853
3855.9697 91793 91760 91756 91769 91784 91788 91778 91754 91719 91675 91630
3861.2729 91596 91589 91613 91664 91729 91801 91871 91930 91970 91985 91971
3866.5762 91928 91856 91758 91641 91528 91458 91467 91534 91597 91619 91605
3871.8794 91574 91545 91543 91591 91693 91814 91909 91957 91964 91945 91915
3877.1829 91883 91849 91811 91763 91704 91646 91610 91610 91638 91675 91708
3882.4861 91729 91735 91726 91706 91685 91684 91719 91781 91842 91874 91869
3887.7893 91830 91768 91698 91637 91603 91609 91650 91700 91730 91730 91713
3893.0925 91701 91706 91731 91767 91794 91793 91754 91681 91588 91503 91454
3898.3960 91464 91526 91603 91658 91678 91675 91666 91661 91656 91636 91590
3903.6992 91525 91467 91446 91477 91546 91628 91695 91735 91746 91734 91714
3909.0024 91697 91695 91710 91742 91782 91821 91847 91845 91810 91746 91669
3914.3057 91601 91559 91553 91580 91628 91678 91716 91746 91776 91810 91846
3919.6091 91872 91876 91854 91811 91755 91696 91643 91605 91594 91616 91661
3924.9124 91709 91738 91740 91720 91689 91658 91629 91600 91566 91527 91494
3930.2156 91483 91507 91569 91654 91735 91789 91810 91809 91800 91794 91794
3935.5188 91796 91798 91798 91799 91801 91805 91808 91805 91796 91782 91765
3940.8223 91752 91749 91760 91782 91802 91807 91791 91761 91730 91712 91714
3946.1255 91733 91757 91776 91785 91791 91805 91832 91862 91879 91871 91838
3951.4287 91791 91746 91714 91700 91697 91699 91703 91707 91715 91726 91736
3956.7319 91737 91725 91701 91671 91644 91627 91623 91632 91652 91680 91709
3962.0354 91729 91730 91710 91674 91636 91610 91608 91627 91657 91684 91697
3967.3386 91698 91696 91706 91735 91778 91818 91840 91836 91812 91788 91785
3972.6418 91814 91869 91930 91974 91985 91960 91907 91840 91776 91727 91698
3977.9451 91691 91702 91725 91757 91793 91831 91865 91884 91878 91843 91788
3983.2485 91732 91698 91695 91717 91748 91768 91770 91758 91743 91735 91738
3988.5518 91753 91777 91812 91855 91898 91929 91935 91911 91862 91803 91748
3993.8550 91711 91695 91700 91722 91751 91780 91799 91799 91781 91750 91714
3999.1582 91682 91656 91635
##END= 
