##TITLE= STDACIDOBENZOICO
##JCAMP-DX= 4.24
##DATA TYPE= INFRARED SPECTRUM
##ORIGIN= JASCO
##OWNER= 
##DATE= 22/04/14
##TIME= 11:27:21
##SPECTROMETER/DATA SYSTEM= 
##RESOLUTION= 
##DELTAX=   0.48211674
##XUNITS= 1/CM
##YUNITS= TRANSMITTANCE
##XFACTOR= 1.00000
##YFACTOR= 1E-005
##FIRSTX=   599.7532
##LASTX=  4000.1226
##NPOINTS=     7054
##FIRSTY=      0.68641
##MAXY=      0.93328
##MINY=      0.15615
##XYDATA= (X++(Y..Y))
599.7532 68641 69077 69514 69780 69815 69667 69432 69172 68895 68577 68214
605.0565 67855 67579 67446 67450 67520 67553 67467 67238 66897 66515 66167
610.3598 65913 65788 65793 65905 66074 66228 66281 66146 65763 65128 64305
615.6631 63436 62710 62318 62370 62834 63536 64249 64793 65084 65126 64972
620.9664 64689 64349 64016 63743 63558 63457 63400 63326 63184 62961 62699
626.2697 62472 62336 62299 62316 62322 62274 62172 62047 61912 61738 61460
631.5729 61027 60467 59897 59477 59323 59432 59670 59838 59778 59463 59002
636.8762 58565 58281 58172 58153 58096 57904 57572 57180 56841 56636 56576
642.1795 56604 56633 56581 56396 56061 55589 55012 54380 53749 53165 52641
647.4828 52159 51676 51163 50634 50137 49723 49402 49131 48833 48453 47991
652.7861 47497 47027 46581 46083 45430 44579 43609 42704 42044 41697 41578
658.0894 41498 41263 40760 39967 38919 37653 36210 34662 33114 31660 30324
663.3926 29052 27786 26556 25492 24745 24404 24499 25097 26524 29633 34916
668.6959 40248 43902 46681 49420 52357 55389 58228 60506 61891 62193 61403
673.9992 59688 57395 55011 53044 51841 51436 51516 51548 50994 49531 47155
679.3025 44133 40846 37640 34760 32385 30688 29834 29905 30819 32343 34227
684.6058 36366 38846 41811 45233 48762 51766 53577 53818 52636 50665 48694
689.9091 47239 46353 45741 45026 43966 42529 40833 39046 37291 35630 34091
695.2123 32687 31411 30210 28990 27666 26235 24813 23571 22610 21858 21084
700.5156 20043 18676 17212 16073 15615 15871 16519 17134 17565 18112 19335
705.8189 21647 24988 28840 32549 35743 38523 41289 44361 47709 50990 53849
711.1222 56201 58299 60544 63208 66273 69480 72535 75289 77769 80074 82244
716.4255 84223 85917 87271 88307 89089 89663 90039 90220 90257 90264 90362
721.7288 90617 91009 91449 91815 91997 91936 91649 91226 90801 90506 90429
727.0320 90571 90852 91143 91322 91331 91190 90969 90747 90564 90420 90287
732.3353 90146 90003 89883 89808 89772 89745 89688 89580 89433 89277 89141
737.6386 89030 88932 88830 88722 88622 88546 88502 88482 88472 88461 88448
742.9419 88437 88431 88428 88424 88422 88434 88472 88536 88611 88668 88678
748.2452 88620 88492 88309 88096 87879 87686 87533 87424 87343 87251 87100
753.5485 86850 86495 86070 85646 85302 85087 85007 85027 85089 85144 85159
758.8517 85122 85032 84896 84727 84554 84414 84336 84322 84333 84303 84174
764.1550 83932 83611 83281 83003 82797 82635 82460 82229 81939 81628 81348
769.4583 81134 80977 80828 80625 80322 79914 79441 78967 78555 78245 78045
774.7616 77936 77882 77839 77767 77633 77415 77113 76747 76355 75982 75659
780.0649 75397 75186 75000 74820 74638 74465 74312 74183 74058 73900 73669
785.3682 73345 72938 72493 72064 71695 71397 71146 70903 70637 70347 70062
790.6714 69817 69621 69441 69214 68879 68413 67848 67249 66682 66173 65701
795.9747 65210 64648 63987 63245 62464 61697 60977 60307 59661 59004 58308
801.2780 57576 56842 56167 55617 55238 55050 55037 55162 55379 55649 55949
806.5813 56268 56598 56913 57160 57267 57190 56962 56735 56761 57315 58575
811.8846 60534 62970 65517 67794 69541 70682 71306 71578 71655 71632 71543
817.1879 71394 71207 71035 70960 71062 71382 71904 72558 73243 73862 74345
822.4911 74670 74868 74996 75109 75230 75338 75390 75353 75231 75062 74899
827.7944 74781 74714 74680 74656 74625 74588 74554 74534 74534 74556 74600
833.0977 74656 74703 74710 74654 74528 74352 74167 74010 73906 73854 73836
838.4010 73827 73799 73724 73580 73359 73068 72743 72433 72186 72030 71963
843.7043 71954 71966 71972 71966 71969 72011 72111 72263 72430 72559 72609
849.0076 72570 72468 72348 72249 72188 72157 72136 72106 72052 71958 71810
854.3109 71598 71335 71059 70824 70685 70673 70786 70994 71254 71522 71762
859.6141 71949 72066 72105 72069 71974 71841 71691 71543 71410 71294 71195
864.9174 71107 71022 70936 70844 70749 70649 70540 70419 70285 70147 70016
870.2207 69904 69808 69714 69602 69459 69294 69130 68994 68896 68823 68743
875.5240 68627 68460 68252 68029 67820 67646 67511 67400 67292 67163 67002
880.8273 66811 66609 66424 66272 66154 66055 65947 65807 65622 65397 65151
886.1306 64905 64682 64492 64333 64188 64035 63859 63658 63443 63225 63008
891.4338 62784 62544 62283 62014 61754 61518 61306 61107 60905 60691 60459
896.7371 60209 59936 59636 59312 58978 58659 58377 58140 57937 57740 57521
902.0404 57262 56968 56656 56352 56071 55814 55569 55314 55032 54713 54361
907.3437 53988 53611 53245 52902 52588 52300 52029 51763 51487 51190 50864
912.6470 50510 50130 49731 49323 48913 48506 48100 47692 47280 46867 46468
917.9503 46109 45818 45619 45523 45524 45605 45741 45909 46089 46265 46422
923.2535 46550 46647 46716 46768 46817 46869 46925 46974 47008 47020 47012
928.5568 46991 46961 46928 46896 46871 46865 46888 46948 47049 47193 47380
933.8601 47613 47893 48222 48599 49028 49515 50076 50721 51446 52220 52988
939.1634 53680 54235 54623 54854 54982 55085 55236 55483 55833 56260 56721
944.4667 57183 57635 58087 58563 59076 59626 60202 60784 61364 61940 62525
949.7700 63128 63753 64398 65052 65702 66339 66959 67564 68156 68741 69322
955.0732 69901 70475 71036 71570 72071 72536 72980 73420 73874 74343 74814
960.3765 75258 75647 75967 76226 76449 76661 76878 77092 77281 77420 77504
965.6798 77554 77609 77708 77869 78075 78287 78462 78578 78638 78670 78706
970.9831 78762 78840 78922 78984 79003 78964 78866 78728 78589 78495 78490
976.2864 78590 78784 79030 79274 79474 79607 79679 79712 79730 79750 79773
981.5897 79789 79785 79755 79707 79650 79592 79531 79451 79331 79163 78956
986.8929 78740 78553 78427 78377 78394 78449 78505 78527 78489 78377 78187
992.1962 77917 77574 77166 76703 76200 75681 75184 74765 74477 74333 74260
997.4995 74104 73680 72892 71827 70782 70166 70311 71308 72944 74791 76401
1002.8028 77484 77988 78053 77894 77683 77501 77357 77232 77120 77030 76976
1008.1061 76961 76977 77008 77039 77053 77034 76968 76849 76685 76493 76291
1013.4094 76088 75884 75668 75430 75167 74884 74586 74281 73974 73673 73387
1018.7126 73124 72884 72652 72391 72053 71589 70961 70148 69144 67948 66549
1024.0160 64926 63068 61014 58913 57050 55820 55631 56761 59229 62738 66753
1029.3192 70661 73967 76424 78042 79005 79538 79821 79947 79952 79851 79669
1034.6226 79445 79221 79025 78864 78725 78587 78434 78261 78077 77899 77744
1039.9258 77623 77532 77454 77367 77253 77104 76927 76741 76570 76433 76339
1045.2291 76282 76248 76220 76184 76135 76074 76003 75926 75843 75754 75661
1050.5323 75568 75476 75386 75296 75206 75117 75032 74951 74868 74777 74670
1055.8357 74543 74397 74229 74037 73817 73570 73308 73047 72797 72547 72269
1061.1389 71927 71502 71002 70460 69913 69379 68846 68282 67655 66950 66176
1066.4423 65357 64522 63698 62914 62196 61565 61025 60561 60145 59749 59374
1071.7455 59054 58863 58905 59291 60116 61428 63203 65336 67660 69984 72141
1077.0488 74016 75556 76759 77647 78263 78656 78886 79018 79101 79166 79212
1082.3521 79226 79195 79124 79034 78945 78866 78780 78664 78505 78314 78123
1087.6554 77961 77840 77741 77633 77493 77323 77144 76979 76834 76689 76518
1092.9586 76301 76040 75751 75451 75142 74818 74467 74085 73676 73244 72783
1098.2620 72287 71757 71217 70717 70326 70111 70119 70360 70812 71424 72126
1103.5652 72843 73505 74061 74486 74784 74979 75098 75165 75187 75161 75083
1108.8685 74955 74792 74612 74430 74251 74065 73856 73610 73320 72992 72641
1114.1718 72283 71931 71591 71258 70925 70583 70225 69846 69446 69029 68600
1119.4751 68160 67708 67237 66735 66193 65606 64973 64293 63566 62793 61977
1124.7783 61133 60287 59481 58769 58213 57875 57810 58060 58644 59555 60754
1130.0817 62179 63747 65366 66946 68412 69708 70807 71704 72416 72976 73417
1135.3849 73774 74068 74307 74491 74615 74684 74706 74698 74673 74639 74596
1140.6882 74541 74472 74388 74288 74170 74032 73881 73727 73582 73452 73332
1145.9915 73217 73102 72992 72902 72840 72809 72796 72788 72770 72737 72689
1151.2948 72626 72549 72459 72362 72264 72168 72070 71960 71830 71679 71519
1156.5980 71367 71235 71119 71004 70869 70705 70517 70322 70136 69968 69811
1161.9014 69650 69472 69266 69029 68761 68460 68123 67749 67342 66913 66479
1167.2046 66066 65703 65416 65219 65107 65045 64979 64854 64629 64292 63855
1172.5079 63343 62774 62154 61477 60737 59937 59092 58230 57380 56577 55859
1177.8112 55269 54850 54638 54647 54861 55233 55694 56170 56595 56924 57133
1183.1145 57211 57159 56994 56747 56470 56233 56117 56202 56558 57231 58233
1188.4177 59543 61109 62848 64663 66450 68119 69600 70857 71885 72699 73327
1193.7211 73796 74131 74352 74481 74540 74549 74522 74466 74381 74266 74125
1199.0243 73967 73803 73637 73466 73280 73072 72841 72595 72351 72120 71907
1204.3276 71710 71523 71337 71148 70951 70741 70515 70271 70015 69757 69512
1209.6309 69293 69102 68938 68791 68655 68529 68421 68340 68294 68278 68284
1214.9342 68300 68317 68337 68361 68389 68413 68416 68384 68311 68202 68075
1220.2374 67947 67829 67725 67634 67548 67460 67362 67246 67112 66965 66815
1225.5408 66673 66544 66424 66300 66162 66000 65814 65612 65402 65194 64994
1230.8440 64799 64606 64406 64196 63977 63754 63535 63324 63120 62912 62691
1236.1473 62450 62188 61911 61626 61342 61067 60803 60553 60313 60081 59850
1241.4506 59613 59366 59108 58842 58573 58308 58049 57796 57549 57305 57063
1246.7539 56821 56578 56333 56089 55849 55614 55381 55140 54882 54603 54307
1252.0571 54007 53721 53460 53223 52998 52768 52522 52259 51986 51713 51447
1257.3605 51187 50928 50661 50381 50088 49782 49461 49125 48772 48400 48010
1262.6637 47603 47181 46746 46299 45843 45383 44923 44464 44003 43529 43034
1267.9670 42517 41982 41444 40919 40419 39956 39533 39155 38820 38525 38267
1273.2703 38044 37857 37710 37597 37513 37451 37405 37375 37363 37359 37346
1278.5736 37302 37207 37055 36853 36614 36351 36070 35772 35460 35139 34820
1283.8768 34514 34225 33953 33699 33466 33265 33108 33004 32956 32960 33011
1289.1802 33112 33274 33514 33845 34271 34787 35384 36057 36808 37638 38551
1294.4834 39539 40592 41696 42841 44014 45204 46393 47564 48702 49801 50861
1299.7867 51891 52895 53873 54820 55726 56585 57400 58181 58948 59723 60527
1305.0900 61377 62286 63255 64280 65343 66411 67441 68376 69158 69740 70088
1310.3933 70192 70060 69708 69157 68431 67555 66562 65485 64352 63180 61975
1315.6965 60735 59457 58131 56741 55263 53678 51987 50236 48503 46886 45461
1320.9999 44272 43338 42665 42258 42123 42257 42649 43274 44105 45113 46274
1326.3031 47571 48993 50533 52184 53944 55811 57784 59858 62016 64223 66437
1331.6064 68618 70730 72742 74627 76357 77915 79302 80532 81628 82606 83473
1336.9097 84224 84855 85373 85799 86160 86488 86806 87118 87415 87683 87912
1342.2130 88099 88241 88342 88407 88446 88469 88481 88485 88476 88447 88391
1347.5162 88304 88189 88056 87918 87791 87680 87586 87501 87423 87355 87307
1352.8196 87290 87312 87374 87466 87573 87681 87780 87863 87930 87976 87994
1358.1228 87979 87928 87842 87726 87582 87409 87200 86948 86659 86364 86116
1363.4261 85954 85872 85833 85791 85714 85589 85415 85195 84938 84656 84367
1368.7294 84093 83852 83644 83452 83255 83038 82798 82537 82252 81939 81593
1374.0327 81231 80888 80598 80363 80158 79949 79707 79419 79088 78731 78367
1379.3359 78004 77641 77270 76885 76490 76097 75714 75346 74991 74643 74298
1384.6393 73951 73596 73214 72776 72256 71670 71086 70585 70192 69873 69572
1389.9425 69249 68883 68481 68064 67646 67216 66745 66190 65518 64745 63967
1395.2458 63303 62803 62420 62079 61716 61282 60755 60164 59593 59126 58778
1400.5491 58510 58268 58018 57748 57462 57171 56879 56580 56265 55933 55592
1405.8524 55248 54894 54510 54078 53594 53072 52537 52010 51499 50998 50499
1411.1556 49996 49495 48997 48505 48018 47538 47071 46619 46183 45764 45369
1416.4590 45009 44696 44444 44275 44230 44358 44645 44990 45304 45578 45840
1421.7622 46131 46495 46976 47604 48355 49152 49918 50634 51328 52029 52751
1427.0656 53486 54224 54985 55839 56892 58208 59718 61243 62639 63910 65168
1432.3688 66532 68029 69557 70955 72122 73073 73933 74898 76142 77573 78823
1437.6721 79697 80286 80731 81112 81444 81709 81872 81911 81824 81628 81345
1442.9753 80989 80562 80055 79464 78791 78041 77201 76225 75028 73536 71777
1448.2787 69913 68111 66397 64665 62776 60646 58338 56117 54386 53478 53502
1453.5819 54363 55898 57971 60521 63574 67193 71293 75358 78626 80822 82255
1458.8853 83289 84107 84776 85320 85758 86109 86389 86606 86767 86883 86983
1464.1885 87126 87379 87756 88188 88595 88950 89255 89520 89745 89924 90052
1469.4918 90128 90152 90114 89996 89770 89448 89143 89015 89073 89201 89304
1474.7950 89346 89322 89252 89180 89145 89152 89172 89170 89125 89028 88885
1480.0984 88708 88521 88343 88189 88061 87951 87845 87729 87591 87426 87227
1485.4016 86988 86697 86348 85959 85575 85232 84921 84581 84138 83569 82975
1490.7050 82503 82168 81861 81467 80928 80241 79439 78556 77615 76639 75710
1496.0082 75010 74732 74938 75589 76646 78050 79622 81074 82186 82930 83405
1501.3115 83727 83961 84120 84198 84195 84122 83985 83762 83385 82742 81833
1506.6147 81080 80927 81160 81447 81676 81840 81950 82006 81999 81922 81782
1511.9181 81603 81420 81257 81109 80953 80759 80505 80167 79729 79210 78713
1517.2213 78372 78201 78114 78025 77883 77647 77271 76736 76156 75796 75727
1522.5247 75772 75803 75785 75719 75614 75487 75363 75260 75178 75104 75030
1527.8279 74967 74933 74935 74958 74971 74948 74872 74737 74540 74275 73945
1533.1312 73599 73339 73230 73237 73277 73291 73255 73161 73011 72793 72477
1538.4344 72002 71343 70678 70344 70347 70442 70494 70490 70459 70419 70367
1543.7378 70287 70179 70072 70012 70020 70073 70127 70152 70131 70060 69938
1549.0410 69778 69615 69495 69445 69445 69456 69446 69393 69279 69103 68910
1554.3444 68787 68776 68833 68888 68889 68795 68547 68048 67222 66432 66469
1559.6476 67002 67432 67693 67854 67957 68016 68031 67987 67871 67680 67442
1564.9509 67212 67042 66941 66883 66831 66752 66608 66354 65960 65493 65124
1570.2542 64948 64895 64861 64779 64626 64411 64168 63930 63701 63430 62997
1575.5575 62249 61215 60266 59692 59399 59189 58940 58607 58190 57718 57226
1580.8607 56746 56302 55919 55636 55499 55560 55864 56451 57351 58570 60075
1586.1641 61784 63571 65293 66819 68053 68938 69456 69616 69445 68986 68301
1591.4674 67458 66525 65548 64555 63558 62572 61622 60740 59944 59230 58571
1596.7706 57941 57325 56731 56184 55720 55382 55213 55242 55476 55902 56498
1602.0740 57248 58139 59150 60236 61340 62418 63455 64461 65446 66405 67309
1607.3772 68129 68850 69486 70059 70577 71031 71401 71677 71862 71966 71992
1612.6805 71940 71816 71640 71434 71202 70917 70505 69883 69121 68513 68256
1617.9838 68284 68475 68758 69093 69439 69746 69966 70079 70089 70018 69920
1623.2871 69869 69916 70034 70163 70262 70316 70319 70273 70192 70101 70025
1628.5903 69965 69906 69827 69713 69558 69357 69117 68855 68583 68305 68006
1633.8937 67657 67219 66689 66182 65882 65796 65784 65746 65656 65519 65345
1639.1969 65143 64914 64660 64382 64078 63752 63409 63059 62711 62368 62024
1644.5002 61661 61254 60785 60272 59796 59443 59205 58996 58752 58460 58132
1649.8035 57779 57401 56988 56519 55953 55231 54381 53854 53896 54007 53986
1655.1068 53865 53679 53439 53150 52820 52461 52089 51716 51341 50961 50573
1660.4100 50174 49764 49339 48902 48475 48095 47776 47489 47189 46844 46446
1665.7134 46010 45564 45133 44721 44309 43868 43396 42947 42593 42339 42126
1671.0166 41904 41656 41402 41165 40954 40765 40593 40446 40353 40339 40371
1676.3199 40391 40376 40334 40284 40249 40260 40351 40539 40800 41071 41293
1681.6232 41432 41484 41469 41494 41914 43272 45127 46391 47064 47516 47955
1686.9265 48463 49076 49807 50650 51582 52566 53569 54563 55530 56456 57324
1692.2297 58112 58799 59372 59840 60245 60697 61402 62536 63859 64844 65365
1697.5331 65599 65698 65736 65785 66048 66921 68306 69325 69800 70028 70203
1702.8363 70416 70713 71108 71583 72113 72706 73411 74250 75160 76026 76775
1708.1396 77406 77962 78499 79048 79608 80145 80622 81021 81344 81599 81803
1713.4429 81987 82200 82485 82831 83164 83412 83556 83653 83856 84353 85108
1718.7462 85859 86455 86912 87289 87626 87942 88250 88561 88890 89249 89636
1724.0494 90034 90420 90784 91126 91447 91743 91998 92201 92347 92445 92518
1729.3528 92599 92712 92854 92994 93097 93139 93098 92943 92651 92312 92184
1734.6560 92351 92629 92883 93080 93220 93305 93328 93278 93146 92949 92749
1739.9594 92625 92596 92610 92605 92541 92409 92229 92056 91940 91884 91849
1745.2626 91790 91677 91503 91276 91028 90805 90652 90578 90563 90571 90577
1750.5659 90581 90609 90690 90827 90993 91158 91301 91409 91475 91500 91489
1755.8691 91459 91433 91434 91468 91523 91579 91617 91627 91598 91521 91392
1761.1725 91233 91097 91034 91042 91078 91101 91093 91056 91002 90944 90884
1766.4757 90811 90706 90562 90395 90241 90122 90025 89921 89778 89577 89329
1771.7791 89103 89002 89034 89113 89169 89183 89161 89119 89068 89014 88956
1777.0823 88887 88804 88704 88587 88457 88324 88203 88114 88064 88041 88021
1782.3856 87981 87905 87794 87657 87517 87400 87317 87258 87206 87149 87083
1787.6888 87014 86950 86888 86822 86736 86617 86465 86305 86201 86225 86388
1792.9922 86606 86783 86879 86910 86913 86927 86981 87068 87160 87227 87261
1798.2954 87271 87276 87294 87330 87372 87411 87446 87491 87560 87657 87773
1803.5988 87890 87987 88051 88074 88058 88016 87972 87947 87950 87971 87984
1808.9020 87970 87925 87868 87837 87862 87947 88059 88158 88220 88241 88236
1814.2053 88221 88208 88195 88177 88143 88095 88041 87990 87950 87915 87874
1819.5085 87819 87752 87688 87648 87648 87682 87728 87755 87739 87677 87594
1824.8119 87535 87542 87614 87708 87780 87802 87767 87679 87559 87465 87473
1830.1151 87616 87844 88081 88280 88428 88526 88587 88629 88670 88716 88767
1835.4185 88812 88841 88848 88836 88814 88792 88778 88770 88766 88761 88751
1840.7217 88731 88695 88638 88553 88441 88317 88222 88214 88307 88447 88570
1846.0250 88647 88679 88685 88689 88708 88744 88778 88790 88775 88742 88711
1851.3282 88699 88712 88740 88774 88806 88837 88867 88885 88878 88834 88756
1856.6316 88665 88585 88536 88516 88508 88493 88459 88409 88356 88316 88294
1861.9348 88289 88289 88278 88246 88187 88108 88022 87950 87905 87890 87894
1867.2382 87893 87862 87789 87690 87606 87577 87612 87691 87780 87843 87854
1872.5414 87798 87681 87531 87385 87277 87223 87224 87268 87335 87405 87462
1877.8447 87489 87479 87438 87380 87330 87304 87305 87319 87329 87326 87311
1883.1479 87291 87268 87230 87161 87060 86946 86850 86789 86756 86717 86637
1888.4513 86507 86363 86276 86304 86440 86625 86798 86919 86974 86964 86899
1893.7545 86793 86669 86560 86498 86492 86526 86566 86579 86554 86503 86451
1899.0579 86422 86423 86437 86432 86379 86270 86129 86002 85937 85953 86028
1904.3611 86103 86122 86060 85939 85815 85734 85710 85715 85700 85633 85515
1909.6644 85380 85269 85196 85147 85087 84988 84838 84654 84468 84324 84254
1914.9677 84263 84327 84411 84485 84540 84593 84674 84790 84909 84981 84973
1920.2710 84884 84752 84638 84613 84720 84940 85191 85390 85499 85540 85556
1925.5742 85584 85639 85717 85809 85906 86000 86071 86090 86032 85895 85711
1930.8776 85533 85419 85402 85486 85643 85824 85971 86032 85979 85821 85614
1936.1808 85440 85378 85470 85703 86020 86347 86622 86813 86915 86938 86905
1941.4841 86855 86836 86891 87013 87145 87221 87205 87106 86973 86873 86853
1946.7874 86919 87033 87143 87212 87227 87198 87139 87065 86985 86904 86836
1952.0907 86797 86802 86859 86958 87080 87199 87298 87375 87433 87475 87488
1957.3939 87450 87347 87180 86974 86759 86563 86409 86321 86327 86442 86653
1962.6973 86910 87150 87326 87429 87473 87454 87322 87003 86470 85807 85198
1968.0005 84827 84764 84948 85243 85514 85680 85718 85652 85524 85393 85329
1973.3038 85395 85602 85883 86122 86227 86214 86201 86325 86620 86962 87138
1978.6071 87007 86627 86212 85994 86076 86400 86799 87098 87192 87074 86804
1983.9104 86460 86111 85816 85620 85542 85563 85621 85641 85570 85411 85216
1989.2136 85046 84942 84923 84997 85179 85465 85812 86136 86361 86463 86472
1994.5170 86451 86447 86476 86524 86575 86642 86760 86952 87194 87404 87482
1999.8202 87368 87089 86744 86461 86327 86355 86488 86646 86771 86858 86925
2005.1235 86974 86961 86819 86514 86101 85722 85532 85601 85865 86156 86305
2010.4268 86230 85976 85680 85493 85512 85742 86113 86525 86886 87135 87242
2015.7301 87207 87062 86864 86675 86532 86421 86293 86105 85872 85675 85628
2021.0333 85802 86159 86555 86807 86800 86567 86266 86080 86095 86270 86477
2026.3367 86602 86616 86567 86522 86497 86442 86295 86044 85756 85556 85559
2031.6399 85802 86218 86656 86944 86965 86701 86239 85727 85324 85146 85252
2036.9432 85644 86275 87043 87808 88412 88729 88708 88390 87890 87342 86836
2042.2465 86406 86049 85770 85597 85566 85685 85911 86169 86381 86506 86545
2047.5498 86529 86504 86510 86572 86692 86841 86970 87028 86992 86870 86696
2052.8530 86511 86347 86221 86141 86116 86157 86267 86433 86616 86764 86829
2058.1563 86780 86619 86372 86086 85820 85633 85561 85611 85745 85901 86015
2063.4597 86054 86028 85983 85971 86012 86081 86123 86086 85957 85774 85608
2068.7629 85529 85564 85684 85814 85873 85816 85657 85455 85284 85186 85156
2074.0662 85149 85119 85049 84960 84889 84856 84844 84811 84718 84563 84383
2079.3694 84235 84162 84173 84246 84350 84456 84550 84617 84638 84592 84477
2084.6729 84318 84167 84073 84054 84083 84107 84076 83977 83841 83721 83662
2089.9761 83682 83767 83890 84028 84170 84309 84433 84516 84532 84470 84348
2095.2793 84213 84119 84100 84154 84240 84306 84314 84268 84205 84175 84210
2100.5825 84304 84422 84525 84588 84616 84626 84629 84622 84596 84550 84504
2105.8860 84489 84526 84611 84712 84789 84818 84804 84774 84757 84759 84768
2111.1892 84765 84744 84719 84716 84759 84850 84973 85099 85203 85273 85310
2116.4924 85320 85303 85257 85176 85064 84937 84819 84737 84708 84733 84801
2121.7957 84890 84974 85032 85045 85011 84941 84867 84824 84838 84900 84968
2127.0991 84982 84905 84751 84581 84479 84499 84638 84840 85034 85174 85259
2132.4023 85317 85374 85431 85461 85434 85342 85203 85049 84908 84793 84707
2137.7056 84647 84602 84548 84458 84318 84150 84009 83957 84032 84218 84458
2143.0088 84685 84862 84989 85090 85186 85277 85346 85380 85379 85350 85291
2148.3123 85189 85023 84788 84507 84237 84043 83976 84038 84181 84322 84383
2153.6155 84333 84200 84044 83913 83796 83638 83386 83059 82765 82647 82775
2158.9187 83058 83273 83215 82848 82326 81892 81735 81919 82377 82962 83520
2164.2219 83947 84201 84284 84214 84015 83733 83436 83196 83060 83026 83057
2169.5254 83108 83158 83219 83307 83411 83480 83453 83310 83109 82971 83021
2174.8286 83313 83783 84275 84601 84623 84306 83721 83008 82329 81823 81578
2180.1318 81610 81862 82216 82534 82712 82710 82559 82341 82148 82048 82070
2185.4351 82205 82420 82672 82911 83093 83184 83171 83072 82935 82833 82827
2190.7385 82942 83153 83394 83591 83693 83688 83595 83451 83293 83153 83058
2196.0417 83027 83064 83154 83266 83371 83457 83536 83639 83793 84002 84235
2201.3450 84434 84538 84510 84346 84080 83768 83476 83256 83144 83143 83222
2206.6482 83323 83384 83362 83262 83135 83052 83065 83176 83334 83465 83507
2211.9517 83438 83272 83044 82793 82562 82398 82346 82427 82618 82845 83013
2217.2549 83048 82942 82759 82604 82561 82650 82816 82959 82985 82862 82629
2222.5581 82384 82232 82235 82390 82635 82886 83074 83168 83171 83106 83002
2227.8613 82890 82798 82752 82763 82816 82874 82894 82852 82755 82634 82522
2233.1648 82430 82347 82250 82126 81982 81840 81730 81672 81677 81745 81866
2238.4680 82016 82156 82241 82240 82151 82003 81842 81711 81629 81590 81577
2243.7712 81576 81582 81603 81654 81742 81866 82006 82122 82166 82104 81936
2249.0745 81712 81508 81398 81422 81566 81779 81996 82168 82269 82292 82248
2254.3779 82161 82068 82005 81989 82004 82005 81949 81820 81654 81510 81441
2259.6812 81459 81530 81597 81616 81580 81512 81449 81413 81407 81414 81416
2264.9844 81393 81339 81252 81149 81053 80995 80999 81067 81179 81303 81403
2270.2876 81459 81464 81426 81357 81270 81180 81106 81059 81044 81050 81057
2275.5911 81045 81005 80947 80891 80862 80873 80921 80983 81029 81034 80994
2280.8943 80928 80867 80835 80836 80853 80857 80827 80762 80676 80592 80525
2286.1975 80483 80464 80466 80487 80521 80561 80594 80610 80599 80563 80509
2291.5007 80445 80380 80317 80256 80194 80132 80076 80037 80029 80062 80129
2296.8042 80214 80290 80330 80322 80264 80172 80066 79970 79903 79878 79895
2302.1074 79942 79999 80043 80059 80043 80004 79954 79904 79859 79814 79765
2307.4106 79708 79643 79573 79502 79438 79383 79343 79316 79292 79258 79201
2312.7139 79121 79037 78976 78962 78996 79057 79109 79123 79088 79019 78939
2318.0173 78870 78819 78780 78741 78695 78638 78565 78467 78340 78198 78067
2323.3206 77982 77960 77985 78021 78030 77997 77935 77877 77850 77859 77880
2328.6238 77875 77816 77704 77569 77450 77381 77371 77407 77462 77510 77532
2333.9270 77521 77482 77427 77371 77329 77308 77311 77330 77348 77349 77313
2339.2305 77225 77079 76885 76673 76484 76359 76328 76398 76551 76743 76926
2344.5337 77070 77177 77274 77388 77515 77624 77676 77652 77554 77400 77221
2349.8369 77051 76923 76857 76841 76835 76796 76710 76590 76471 76378 76315
2355.1401 76265 76208 76134 76042 75938 75819 75680 75520 75347 75176 75024
2360.4436 74905 74841 74858 74980 75208 75505 75802 76027 76140 76148 76091
2365.7468 76007 75920 75835 75761 75725 75765 75910 76148 76427 76667 76802
2371.0500 76806 76713 76595 76529 76564 76704 76910 77124 77296 77401 77444
2376.3533 77451 77451 77463 77489 77520 77548 77570 77589 77616 77656 77705
2381.6567 77750 77776 77775 77750 77715 77688 77680 77692 77714 77734 77741
2386.9600 77733 77712 77688 77667 77655 77653 77660 77671 77677 77671 77649
2392.2632 77615 77577 77546 77526 77516 77507 77490 77462 77425 77388 77355
2397.5664 77329 77304 77279 77253 77231 77215 77206 77197 77180 77154 77123
2402.8699 77099 77089 77095 77108 77117 77114 77099 77076 77045 77006 76955
2408.1731 76895 76832 76777 76734 76704 76685 76676 76680 76697 76722 76743
2413.4763 76748 76733 76704 76673 76648 76625 76595 76548 76488 76432 76397
2418.7795 76395 76423 76463 76497 76513 76507 76486 76463 76448 76447 76458
2424.0830 76471 76469 76439 76380 76300 76224 76175 76167 76203 76269 76344
2429.3862 76407 76438 76428 76377 76297 76210 76134 76079 76045 76021 75996
2434.6895 75968 75944 75933 75939 75961 75989 76012 76018 76001 75957 75892
2439.9927 75821 75760 75724 75713 75714 75708 75680 75633 75581 75543 75529
2445.2961 75529 75520 75482 75411 75321 75241 75195 75190 75217 75256 75287
2450.5994 75299 75293 75279 75260 75240 75216 75188 75156 75125 75093 75054
2455.9026 75001 74931 74848 74768 74710 74683 74682 74691 74686 74652 74590
2461.2058 74515 74449 74410 74399 74402 74400 74380 74344 74305 74278 74271
2466.5093 74278 74287 74283 74260 74222 74177 74136 74106 74086 74068 74039
2471.8125 73990 73918 73831 73745 73673 73622 73593 73578 73578 73596 73637
2477.1157 73699 73771 73831 73857 73835 73771 73683 73591 73516 73463 73429
2482.4189 73407 73391 73381 73383 73398 73422 73443 73446 73423 73376 73315
2487.7224 73255 73208 73178 73164 73158 73151 73131 73086 73012 72914 72808
2493.0256 72717 72658 72637 72644 72659 72663 72643 72605 72563 72531 72518
2498.3289 72519 72519 72504 72467 72413 72351 72294 72248 72214 72188 72167
2503.6321 72145 72121 72096 72074 72062 72066 72082 72101 72104 72080 72025
2508.9355 71950 71871 71802 71752 71721 71709 71712 71725 71736 71730 71698
2514.2388 71645 71588 71551 71548 71570 71591 71579 71511 71390 71238 71087
2519.5420 70965 70887 70850 70844 70855 70872 70885 70885 70865 70823 70765
2524.8452 70705 70659 70635 70634 70642 70643 70623 70580 70523 70467 70426
2530.1487 70411 70416 70431 70439 70426 70386 70321 70243 70158 70073 69989
2535.4519 69910 69840 69784 69748 69729 69724 69730 69748 69776 69809 69833
2540.7551 69828 69784 69701 69599 69501 69426 69377 69344 69313 69275 69233
2546.0583 69200 69188 69201 69229 69255 69265 69256 69238 69227 69231 69245
2551.3618 69252 69237 69198 69149 69113 69108 69133 69173 69206 69223 69224
2556.6650 69225 69238 69270 69315 69363 69409 69449 69487 69529 69577 69626
2561.9683 69670 69704 69728 69749 69780 69833 69912 70012 70119 70219 70309
2567.2715 70391 70471 70554 70635 70704 70757 70800 70851 70932 71056 71217
2572.5750 71399 71576 71729 71853 71959 72063 72180 72314 72460 72607 72744
2577.8782 72871 72991 73112 73237 73363 73482 73590 73686 73773 73858 73943
2583.1814 74025 74102 74172 74232 74286 74330 74361 74376 74374 74358 74339
2588.4849 74325 74323 74330 74337 74336 74318 74283 74236 74184 74132 74076
2593.7881 74010 73930 73836 73734 73637 73557 73500 73461 73433 73407 73376
2599.0913 73333 73276 73205 73122 73037 72957 72890 72835 72790 72754 72730
2604.3945 72729 72758 72815 72886 72952 72999 73025 73041 73061 73097 73148
2609.6980 73210 73276 73346 73423 73508 73602 73699 73790 73868 73929 73973
2615.0012 74003 74025 74043 74064 74095 74138 74193 74253 74306 74340 74349
2620.3044 74337 74315 74297 74290 74294 74301 74304 74298 74280 74254 74219
2625.6077 74176 74125 74065 73998 73927 73856 73789 73725 73664 73602 73538
2630.9111 73469 73399 73330 73269 73218 73174 73136 73100 73065 73035 73010
2636.2144 72990 72971 72946 72912 72868 72816 72764 72719 72687 72668 72658
2641.5176 72653 72645 72635 72625 72617 72616 72620 72627 72633 72634 72629
2646.8208 72620 72608 72597 72588 72582 72578 72574 72569 72565 72561 72556
2652.1243 72549 72533 72506 72467 72419 72369 72324 72289 72266 72254 72251
2657.4275 72253 72257 72259 72257 72249 72235 72213 72184 72148 72109 72074
2662.7307 72052 72048 72061 72085 72108 72121 72124 72119 72116 72119 72130
2668.0339 72148 72170 72191 72211 72228 72242 72253 72265 72280 72298 72317
2673.3374 72334 72344 72349 72353 72364 72390 72433 72490 72553 72615 72669
2678.6406 72713 72750 72788 72833 72887 72949 73011 73066 73114 73158 73210
2683.9438 73280 73371 73478 73589 73694 73785 73865 73940 74019 74107 74206
2689.2471 74311 74418 74524 74632 74744 74865 74991 75118 75238 75345 75443
2694.5505 75539 75645 75771 75919 76085 76258 76427 76582 76716 76831 76932
2699.8538 77025 77118 77216 77321 77430 77540 77645 77741 77824 77892 77944
2705.1570 77984 78015 78041 78064 78083 78093 78092 78081 78066 78052 78044
2710.4602 78042 78041 78034 78015 77980 77931 77868 77797 77721 77648 77582
2715.7637 77528 77484 77444 77405 77363 77321 77278 77237 77194 77146 77095
2721.0669 77045 77001 76968 76940 76913 76878 76839 76803 76783 76783 76802
2726.3701 76828 76851 76865 76871 76875 76882 76894 76911 76932 76958 76987
2731.6733 77017 77047 77077 77109 77148 77194 77243 77286 77318 77339 77359
2736.9768 77388 77432 77485 77535 77571 77587 77591 77588 77587 77585 77577
2742.2800 77557 77522 77477 77430 77389 77356 77332 77311 77288 77259 77221
2747.5833 77176 77126 77076 77027 76981 76941 76904 76870 76837 76802 76763
2752.8865 76718 76665 76604 76541 76487 76449 76434 76438 76452 76461 76456
2758.1899 76435 76405 76374 76347 76325 76301 76272 76239 76205 76175 76150
2763.4932 76127 76100 76066 76029 75996 75974 75969 75978 75995 76012 76023
2768.7964 76021 76006 75980 75946 75909 75870 75831 75790 75744 75689 75627
2774.0996 75558 75488 75421 75359 75304 75256 75214 75176 75142 75112 75085
2779.4031 75061 75036 75009 74979 74949 74923 74909 74908 74917 74931 74942
2784.7063 74943 74936 74922 74903 74878 74842 74792 74728 74656 74585 74525
2790.0095 74477 74440 74410 74383 74357 74333 74309 74282 74248 74203 74148
2795.3127 74085 74018 73948 73875 73798 73719 73641 73568 73503 73449 73408
2800.6162 73376 73350 73320 73277 73218 73145 73068 72998 72942 72897 72860
2805.9194 72826 72794 72768 72747 72724 72688 72635 72567 72496 72433 72385
2811.2227 72349 72316 72278 72233 72187 72149 72126 72117 72118 72120 72116
2816.5259 72104 72086 72068 72056 72047 72039 72024 72003 71978 71957 71942
2821.8293 71933 71924 71910 71894 71881 71879 71888 71903 71916 71919 71912
2827.1326 71901 71894 71894 71903 71918 71935 71952 71969 71987 72008 72035
2832.4358 72066 72100 72134 72165 72193 72221 72251 72284 72318 72352 72386
2837.7390 72423 72465 72509 72553 72593 72629 72668 72719 72789 72874 72967
2843.0425 73055 73130 73192 73246 73298 73353 73407 73460 73511 73567 73635
2848.3457 73720 73816 73914 74004 74080 74146 74208 74270 74330 74384 74433
2853.6489 74479 74533 74602 74685 74775 74859 74928 74977 75009 75028 75038
2858.9521 75042 75045 75051 75065 75088 75112 75126 75118 75087 75040 74989
2864.2556 74945 74912 74887 74860 74823 74775 74718 74659 74605 74564 74541
2869.5588 74538 74550 74569 74584 74587 74578 74560 74541 74526 74517 74513
2874.8621 74513 74516 74523 74532 74538 74539 74536 74536 74549 74581 74632
2880.1653 74693 74751 74798 74833 74859 74884 74911 74937 74955 74960 74951
2885.4688 74934 74919 74918 74935 74970 75018 75074 75134 75199 75267 75338
2890.7720 75407 75470 75522 75563 75594 75617 75633 75645 75660 75686 75732
2896.0752 75798 75881 75971 76057 76133 76198 76253 76299 76336 76365 76386
2901.3784 76406 76429 76460 76500 76550 76607 76668 76728 76781 76822 76853
2906.6819 76880 76914 76960 77015 77068 77104 77116 77107 77087 77073 77074
2911.9851 77092 77124 77166 77211 77255 77295 77327 77350 77368 77386 77408
2917.2883 77432 77454 77468 77473 77477 77491 77520 77564 77612 77653 77680
2922.5916 77692 77695 77696 77695 77693 77686 77672 77651 77625 77596 77566
2927.8950 77539 77519 77510 77516 77534 77553 77562 77548 77505 77439 77361
2933.1982 77291 77240 77209 77189 77162 77116 77051 76976 76907 76857 76828
2938.5015 76811 76790 76753 76695 76626 76562 76520 76508 76519 76538 76547
2943.8047 76537 76509 76479 76459 76456 76468 76484 76490 76482 76462 76438
2949.1082 76420 76416 76426 76447 76475 76502 76528 76551 76570 76583 76586
2954.4114 76578 76563 76552 76555 76574 76604 76632 76644 76638 76621 76604
2959.7146 76597 76600 76606 76608 76603 76593 76584 76578 76577 76581 76588
2965.0178 76596 76606 76616 76623 76625 76620 76607 76592 76579 76576 76584
2970.3213 76597 76604 76594 76563 76524 76494 76492 76526 76586 76651 76700
2975.6245 76721 76713 76687 76654 76623 76598 76578 76561 76546 76534 76526
2980.9277 76522 76521 76522 76524 76526 76529 76536 76547 76563 76584 76610
2986.2310 76641 76678 76721 76768 76810 76841 76856 76851 76830 76798 76760
2991.5344 76721 76688 76664 76654 76656 76663 76667 76661 76648 76636 76638
2996.8376 76659 76698 76746 76793 76833 76864 76891 76916 76939 76957 76965
3002.1409 76959 76941 76918 76896 76884 76886 76901 76926 76954 76978 76995
3007.4441 77004 77008 77011 77020 77037 77064 77096 77126 77148 77158 77161
3012.7476 77165 77181 77214 77262 77318 77370 77410 77430 77436 77436 77441
3018.0508 77459 77489 77523 77553 77572 77584 77597 77619 77658 77712 77779
3023.3540 77853 77927 77992 78043 78074 78091 78103 78121 78154 78200 78253
3028.6572 78308 78361 78416 78477 78546 78619 78689 78750 78801 78842 78873
3033.9607 78895 78910 78923 78944 78982 79042 79121 79207 79290 79362 79425
3039.2639 79482 79536 79588 79630 79655 79660 79646 79625 79609 79606 79621
3044.5671 79649 79681 79707 79720 79716 79697 79670 79643 79625 79617 79619
3049.8704 79625 79626 79613 79583 79534 79473 79410 79354 79313 79288 79270
3055.1738 79248 79209 79147 79062 78965 78864 78767 78672 78575 78469 78356
3060.4771 78241 78131 78031 77939 77852 77771 77702 77656 77639 77645 77656
3065.7803 77652 77618 77549 77450 77326 77183 77023 76855 76695 76562 76471
3071.0835 76431 76444 76512 76643 76851 77146 77528 77986 78496 79031 79568
3076.3870 80085 80566 80997 81369 81679 81929 82125 82279 82400 82496 82571
3081.6902 82627 82664 82685 82696 82707 82728 82764 82815 82875 82935 82989
3086.9934 83037 83080 83122 83159 83190 83209 83215 83209 83194 83172 83147
3092.2966 83127 83122 83141 83186 83250 83319 83376 83415 83442 83470 83510
3097.6001 83569 83642 83720 83796 83869 83940 84012 84085 84157 84226 84291
3102.9033 84348 84396 84430 84448 84453 84451 84453 84466 84491 84520 84547
3108.2065 84570 84592 84623 84670 84733 84807 84884 84959 85029 85098 85163
3113.5098 85218 85254 85266 85257 85241 85235 85250 85287 85334 85376 85402
3118.8132 85414 85421 85437 85471 85519 85573 85622 85662 85698 85736 85782
3124.1165 85832 85877 85911 85933 85950 85972 86006 86052 86103 86152 86196
3129.4197 86239 86283 86328 86368 86395 86407 86406 86400 86398 86402 86414
3134.7229 86433 86462 86507 86572 86651 86730 86793 86831 86847 86854 86863
3140.0264 86882 86907 86935 86962 86989 87017 87042 87056 87053 87038 87024
3145.3296 87029 87062 87118 87180 87234 87273 87304 87337 87378 87422 87459
3150.6328 87477 87473 87453 87428 87411 87408 87424 87459 87508 87566 87627
3155.9360 87685 87734 87769 87787 87787 87777 87767 87768 87788 87824 87865
3161.2395 87899 87922 87941 87969 88013 88069 88120 88144 88127 88072 88000
3166.5427 87937 87908 87918 87960 88015 88070 88116 88161 88214 88284 88367
3171.8459 88452 88520 88560 88570 88554 88523 88487 88452 88425 88412 88417
3177.1492 88443 88482 88525 88560 88581 88588 88588 88588 88592 88607 88634
3182.4526 88674 88727 88784 88837 88874 88888 88880 88854 88823 88799 88794
3187.7559 88815 88860 88920 88981 89032 89068 89096 89125 89160 89198 89228
3193.0591 89235 89217 89179 89139 89113 89112 89135 89169 89198 89209 89200
3198.3623 89184 89180 89205 89264 89346 89432 89505 89556 89590 89613 89632
3203.6658 89647 89652 89649 89640 89634 89633 89637 89635 89624 89603 89580
3208.9690 89570 89581 89617 89672 89734 89792 89838 89867 89882 89888 89891
3214.2722 89898 89914 89938 89966 89991 90004 89998 89971 89927 89880 89850
3219.5754 89856 89906 89995 90102 90200 90266 90291 90279 90248 90221 90215
3224.8789 90237 90281 90332 90373 90392 90386 90360 90328 90304 90298 90314
3230.1821 90347 90384 90414 90425 90417 90397 90378 90369 90370 90372 90367
3235.4854 90353 90343 90354 90402 90487 90590 90680 90732 90740 90721 90706
3240.7886 90719 90763 90821 90863 90870 90840 90791 90745 90718 90709 90709
3246.0920 90712 90720 90743 90789 90853 90925 90989 91041 91085 91130 91179
3251.3953 91223 91246 91238 91197 91140 91087 91053 91044 91057 91087 91134
3256.6985 91197 91273 91346 91395 91403 91364 91294 91215 91148 91102 91073
3262.0017 91049 91027 91010 91010 91037 91094 91172 91256 91334 91398 91447
3267.3052 91483 91503 91506 91486 91443 91385 91324 91278 91257 91263 91290
3272.6084 91328 91367 91404 91436 91461 91475 91481 91484 91499 91535 91590
3277.9116 91651 91698 91715 91700 91663 91615 91565 91514 91460 91404 91356
3283.2148 91328 91332 91370 91431 91503 91569 91620 91659 91691 91725 91763
3288.5183 91797 91816 91809 91771 91710 91641 91581 91543 91529 91537 91559
3293.8215 91586 91608 91618 91610 91584 91543 91499 91467 91462 91490 91544
3299.1248 91606 91657 91682 91685 91681 91688 91716 91759 91799 91818 91808
3304.4280 91777 91744 91722 91712 91704 91679 91630 91558 91483 91427 91411
3309.7314 91438 91502 91584 91663 91721 91748 91746 91724 91697 91676 91665
3315.0347 91659 91651 91639 91628 91624 91632 91648 91661 91662 91647 91625
3320.3379 91611 91618 91650 91701 91757 91799 91808 91777 91713 91635 91567
3325.6411 91528 91525 91551 91589 91626 91657 91679 91696 91710 91725 91746
3330.9446 91776 91816 91857 91886 91894 91886 91877 91885 91918 91964 91999
3336.2478 91996 91944 91854 91754 91678 91649 91675 91741 91823 91891 91920
3341.5510 91902 91850 91793 91761 91776 91839 91932 92028 92105 92155 92185
3346.8542 92208 92237 92273 92306 92318 92294 92223 92113 91985 91872 91800
3352.1577 91782 91807 91849 91880 91890 91887 91891 91922 91979 92049 92110
3357.4609 92145 92155 92149 92136 92122 92101 92069 92026 91983 91960 91971
3362.7642 92021 92094 92164 92206 92206 92170 92117 92069 92039 92027 92024
3368.0674 92018 92004 91981 91952 91922 91893 91869 91851 91842 91847 91869
3373.3708 91913 91975 92046 92111 92156 92173 92165 92141 92112 92081 92050
3378.6741 92015 91978 91942 91914 91895 91886 91882 91884 91892 91907 91926
3383.9773 91943 91949 91944 91933 91926 91933 91955 91986 92016 92039 92054
3389.2805 92065 92073 92075 92064 92033 91985 91932 91890 91871 91875 91896
3394.5840 91925 91957 91990 92029 92075 92129 92182 92226 92251 92250 92223
3399.8872 92172 92107 92041 91984 91945 91928 91931 91947 91967 91985 91998
3405.1904 92011 92032 92068 92116 92163 92193 92194 92164 92112 92050 91986
3410.4937 91928 91882 91853 91849 91869 91904 91941 91969 91984 91992 91999
3415.7971 92009 92016 92011 91986 91939 91879 91816 91766 91735 91725 91729
3421.1003 91740 91756 91779 91817 91872 91940 92006 92058 92089 92096 92085
3426.4036 92057 92012 91952 91888 91833 91801 91798 91817 91843 91864 91874
3431.7068 91878 91883 91897 91917 91938 91954 91960 91956 91943 91922 91894
3437.0103 91866 91843 91836 91851 91887 91934 91971 91979 91950 91891 91825
3442.3135 91783 91781 91815 91859 91880 91855 91785 91693 91618 91596 91638
3447.6167 91721 91803 91847 91841 91794 91733 91691 91690 91729 91792 91852
3452.9199 91885 91882 91851 91811 91784 91783 91811 91854 91897 91926 91930
3458.2234 91909 91865 91804 91736 91673 91632 91628 91666 91740 91828 91906
3463.5266 91954 91963 91938 91891 91837 91786 91744 91713 91696 91695 91715
3468.8298 91758 91816 91876 91921 91938 91932 91914 91901 91901 91912 91920
3474.1331 91915 91891 91858 91828 91808 91798 91788 91769 91738 91703 91673
3479.4365 91658 91662 91678 91699 91715 91722 91721 91716 91712 91710 91714
3484.7397 91722 91731 91733 91720 91684 91631 91578 91546 91550 91585 91630
3490.0430 91660 91664 91648 91635 91646 91684 91733 91766 91760 91713 91639
3495.3462 91566 91513 91490 91490 91501 91515 91527 91540 91555 91573 91591
3500.6497 91606 91617 91627 91639 91654 91664 91656 91624 91573 91522 91493
3505.9529 91497 91529 91568 91590 91582 91548 91514 91507 91540 91605 91679
3511.2561 91741 91774 91773 91743 91699 91659 91641 91654 91696 91751 91796
3516.5593 91814 91795 91744 91679 91620 91582 91569 91571 91566 91536 91471
3521.8628 91383 91302 91266 91294 91375 91473 91550 91582 91568 91525 91476
3527.1660 91442 91431 91445 91478 91524 91574 91617 91639 91634 91609 91579
3532.4692 91561 91562 91570 91566 91535 91479 91420 91390 91409 91472 91549
3537.7725 91610 91638 91636 91620 91609 91609 91613 91607 91580 91534 91478
3543.0759 91427 91388 91357 91321 91270 91205 91142 91103 91105 91149 91225
3548.3792 91312 91390 91444 91464 91450 91409 91360 91327 91330 91370 91430
3553.6824 91489 91530 91546 91542 91522 91492 91453 91406 91355 91308 91278
3558.9856 91279 91318 91380 91441 91471 91458 91408 91343 91281 91228 91167
3564.2891 91071 90919 90715 90501 90357 90353 90497 90717 90931 91092 91201
3569.5923 91279 91346 91410 91468 91508 91517 91491 91435 91365 91297 91242
3574.8955 91207 91193 91206 91249 91319 91405 91489 91552 91588 91603 91605
3580.1990 91596 91570 91517 91438 91343 91256 91198 91169 91149 91110 91023
3585.5022 90874 90676 90470 90321 90284 90372 90554 90779 90997 91176 91301
3590.8054 91366 91374 91327 91235 91113 90983 90873 90812 90819 90896 91013
3596.1086 91126 91193 91196 91136 91036 90924 90831 90778 90773 90811 90875
3601.4121 90945 91002 91040 91063 91083 91109 91142 91170 91177 91146 91070
3606.7153 90958 90834 90731 90678 90691 90756 90842 90912 90944 90930 90871
3612.0186 90786 90702 90645 90622 90624 90637 90658 90690 90732 90777 90809
3617.3218 90812 90778 90721 90678 90681 90740 90830 90922 90998 91054 91097
3622.6252 91135 91168 91188 91178 91121 91008 90849 90659 90455 90243 90023
3627.9285 89808 89670 89719 89951 90242 90500 90698 90829 90888 90873 90804
3633.2317 90730 90714 90784 90909 91031 91101 91096 91029 90938 90876 90883
3638.5349 90960 91076 91184 91248 91249 91196 91120 91060 91040 91053 91066
3643.8384 91043 90963 90825 90646 90457 90298 90188 90104 89975 89742 89408
3649.1416 89063 88880 89016 89443 89969 90424 90748 90946 91043 91058 90999
3654.4448 90870 90681 90471 90319 90292 90378 90513 90645 90747 90809 90828
3659.7480 90806 90754 90692 90646 90636 90672 90750 90847 90939 91006 91037
3665.0515 91036 91010 90965 90899 90807 90680 90515 90321 90128 89996 89991
3670.3547 90120 90306 90461 90542 90548 90486 90362 90173 89927 89696 89641
3675.6580 89806 90029 90200 90311 90382 90439 90504 90595 90714 90838 90939
3680.9612 90996 91005 90977 90928 90873 90825 90785 90750 90707 90643 90542
3686.2646 90389 90177 89924 89700 89594 89631 89736 89835 89903 89962 90045
3691.5679 90165 90300 90427 90531 90610 90671 90725 90779 90838 90896 90939
3696.8711 90955 90936 90890 90831 90771 90712 90648 90570 90482 90409 90390
3702.1743 90435 90520 90607 90672 90704 90706 90686 90654 90618 90578 90528
3707.4778 90459 90366 90255 90145 90055 89996 89966 89965 90009 90107 90241
3712.7810 90369 90467 90536 90585 90624 90652 90661 90637 90567 90454 90315
3718.0842 90186 90109 90101 90144 90203 90255 90292 90317 90337 90349 90340
3723.3875 90302 90240 90165 90101 90072 90094 90156 90226 90278 90301 90297
3728.6909 90275 90239 90191 90134 90076 90031 90007 89991 89950 89849 89678
3733.9941 89450 89228 89115 89182 89380 89600 89782 89927 90053 90170 90271
3739.2974 90343 90372 90357 90318 90283 90265 90252 90208 90069 89779 89419
3744.6006 89282 89454 89735 89987 90168 90274 90300 90245 90118 89958 89818
3749.9041 89715 89635 89575 89574 89692 89928 90195 90409 90541 90595 90585
3755.2073 90529 90455 90393 90360 90342 90319 90282 90250 90267 90367 90531
3760.5105 90700 90827 90893 90900 90863 90798 90719 90636 90557 90496 90473
3765.8137 90496 90551 90609 90644 90638 90583 90487 90386 90342 90388 90501
3771.1172 90631 90750 90845 90918 90971 91006 91021 91019 91004 90981 90953
3776.4204 90918 90864 90781 90667 90542 90454 90452 90543 90685 90823 90920
3781.7236 90959 90938 90863 90752 90638 90558 90540 90589 90680 90779 90862
3787.0269 90916 90943 90953 90958 90965 90974 90979 90974 90958 90935 90916
3792.3303 90907 90904 90895 90861 90786 90666 90511 90351 90237 90201 90231
3797.6335 90290 90343 90372 90372 90336 90252 90115 89958 89861 89881 89993
3802.9368 90148 90306 90445 90545 90593 90581 90518 90448 90430 90483 90565
3808.2400 90633 90676 90699 90719 90746 90782 90816 90832 90816 90766 90688
3813.5435 90587 90467 90332 90201 90126 90157 90268 90382 90451 90455 90388
3818.8467 90237 89983 89632 89277 89122 89283 89627 89965 90216 90374 90456
3824.1499 90485 90478 90451 90414 90377 90353 90358 90400 90471 90553 90624
3829.4531 90663 90656 90600 90518 90454 90441 90471 90512 90531 90505 90432
3834.7566 90329 90224 90131 90042 89942 89824 89709 89632 89615 89661 89772
3840.0598 89944 90154 90362 90527 90625 90658 90642 90607 90586 90593 90621
3845.3630 90653 90674 90676 90654 90606 90535 90446 90351 90258 90168 90075
3850.6663 89964 89818 89623 89384 89157 89065 89194 89449 89690 89869 89997
3855.9697 90096 90185 90277 90376 90474 90559 90623 90659 90666 90643 90595
3861.2729 90529 90453 90367 90266 90148 90028 89947 89956 90060 90203 90323
3866.5762 90392 90407 90369 90277 90137 89987 89923 90015 90208 90398 90527
3871.8794 90580 90555 90464 90345 90264 90269 90340 90426 90490 90524 90532
3877.1829 90519 90481 90413 90309 90184 90086 90076 90169 90303 90412 90466
3882.4861 90471 90442 90399 90352 90315 90303 90336 90420 90536 90652 90745
3887.7893 90803 90817 90779 90683 90528 90331 90145 90042 90063 90184 90350
3893.0925 90521 90674 90799 90885 90923 90910 90852 90759 90645 90526 90417
3898.3960 90336 90289 90266 90250 90224 90180 90113 90024 89925 89842 89803
3903.6992 89835 89944 90107 90282 90434 90552 90645 90725 90797 90856 90891
3909.0024 90896 90874 90836 90800 90777 90772 90783 90799 90808 90795 90752
3914.3057 90676 90575 90467 90382 90352 90390 90475 90564 90622 90637 90622
3919.6091 90602 90607 90649 90715 90774 90798 90769 90687 90578 90486 90451
3924.9124 90483 90558 90638 90696 90725 90727 90709 90681 90653 90628 90609
3930.2156 90591 90574 90559 90553 90561 90583 90611 90638 90663 90688 90722
3935.5188 90769 90827 90886 90939 90978 91002 91011 91005 90983 90943 90881
3940.8223 90799 90703 90609 90539 90513 90535 90592 90665 90736 90795 90838
3946.1255 90865 90877 90872 90849 90808 90761 90725 90717 90745 90794 90840
3951.4287 90865 90860 90835 90810 90797 90799 90805 90802 90784 90756 90727
3956.7319 90708 90702 90703 90707 90711 90717 90730 90750 90779 90812 90844
3962.0354 90869 90884 90889 90886 90880 90872 90864 90854 90844 90839 90845
3967.3386 90865 90892 90911 90902 90854 90775 90688 90622 90594 90608 90647
3972.6418 90690 90718 90727 90724 90721 90727 90748 90783 90827 90874 90913
3977.9451 90937 90940 90923 90897 90875 90869 90882 90903 90916 90907 90870
3983.2485 90813 90753 90707 90685 90691 90724 90775 90834 90889 90923 90925
3988.5518 90891 90833 90775 90743 90751 90792 90843 90874 90872 90838 90791
3993.8550 90753 90735 90736 90742 90740 90727 90707 90694 90697 90720 90756
3999.1582 90793 90816 90813
##END= 
