##TITLE= INCSODIOPAMMINOSALICILATO
##JCAMP-DX= 4.24
##DATA TYPE= INFRARED SPECTRUM
##ORIGIN= JASCO
##OWNER= 
##DATE= 22/04/13
##TIME= 16:58:49
##SPECTROMETER/DATA SYSTEM= 
##RESOLUTION= 
##DELTAX=   0.48211674
##XUNITS= 1/CM
##YUNITS= TRANSMITTANCE
##XFACTOR= 1.00000
##YFACTOR= 1E-005
##FIRSTX=   599.7532
##LASTX=  4000.1226
##NPOINTS=     7054
##FIRSTY=      0.47285
##MAXY=      0.98414
##MINY=      0.37760
##XYDATA= (X++(Y..Y))
599.7532 47285 47438 47718 48039 48326 48535 48667 48756 48852 49004 49236
605.0565 49528 49826 50069 50217 50267 50245 50187 50126 50077 50041 50010
610.3598 49962 49877 49741 49556 49343 49125 48910 48689 48438 48154 47863
615.6631 47621 47480 47460 47520 47584 47578 47479 47329 47197 47144 47194
620.9664 47338 47545 47788 48048 48309 48546 48731 48852 48933 49029 49198
626.2697 49461 49798 50172 50578 51055 51672 52476 53444 54482 55468 56311
631.5729 56990 57549 58056 58554 59043 59489 59861 60155 60390 60598 60802
636.8762 61008 61220 61446 61709 62030 62422 62885 63409 63994 64661 65449
642.1795 66397 67522 68800 70155 71482 72672 73650 74395 74939 75336 75630
647.4828 75827 75893 75786 75499 75089 74664 74329 74139 74067 74029 73931
652.7861 73730 73452 73179 72982 72873 72805 72704 72534 72319 72135 72054
658.0894 72090 72184 72222 72101 71783 71314 70799 70345 70015 69809 69679
663.3926 69565 69439 69321 69249 69258 69351 69513 69704 69830 69699 69183
668.6959 68633 68350 68199 68012 67709 67270 66729 66160 65656 65302 65146
673.9992 65188 65365 65555 65612 65441 65060 64611 64283 64199 64339 64549
679.3025 64642 64513 64196 63838 63615 63633 63875 64198 64388 64246 63702
684.6058 62884 62096 61660 61711 62064 62275 61892 60751 59138 57670 56970
689.9091 57321 58524 60002 61078 61255 60385 58676 56578 54588 53064 52102
695.2123 51547 51115 50551 49741 48707 47525 46254 44916 43539 42201 41010
700.5156 40050 39325 38767 38305 37938 37760 37902 38450 39394 40648 42113
705.8189 43738 45524 47485 49591 51746 53813 55672 57264 58597 59712 60640
711.1222 61385 61930 62276 62456 62538 62600 62700 62859 63055 63246 63387
716.4255 63447 63422 63326 63181 63002 62787 62526 62207 61838 61443 61051
721.7288 60667 60279 59871 59446 59041 58715 58517 58450 58466 58483 58429
727.0320 58277 58056 57827 57642 57512 57402 57256 57034 56737 56411 56121
732.3353 55924 55834 55829 55855 55853 55781 55626 55400 55134 54869 54651
737.6386 54522 54510 54618 54815 55045 55248 55395 55498 55609 55786 56062
742.9419 56428 56839 57240 57595 57898 58169 58423 58658 58842 58937 58923
748.2452 58810 58636 58445 58260 58074 57863 57608 57313 56996 56681 56378
753.5485 56084 55792 55505 55234 54991 54769 54550 54315 54063 53819 53621
758.8517 53494 53434 53409 53386 53353 53324 53325 53371 53439 53483 53457
764.1550 53344 53177 53017 52924 52929 53019 53155 53290 53391 53445 53456
769.4583 53439 53412 53396 53411 53471 53585 53750 53955 54182 54406 54600
774.7616 54750 54854 54934 55025 55160 55353 55592 55848 56088 56292 56457
780.0649 56592 56712 56833 56970 57131 57317 57510 57678 57785 57807 57744
785.3682 57624 57488 57381 57326 57326 57360 57398 57414 57393 57336 57250
790.6714 57145 57018 56855 56634 56336 55950 55483 54960 54419 53903 53444
795.9747 53051 52704 52360 51973 51511 50973 50385 49781 49186 48606 48030
801.2780 47451 46871 46308 45793 45358 45029 44819 44728 44745 44857 45055
806.5813 45340 45715 46182 46726 47316 47918 48507 49083 49666 50282 50948
811.8846 51660 52399 53141 53870 54577 55260 55913 56524 57082 57581 58028
817.1879 58439 58827 59195 59531 59810 60004 60094 60074 59964 59795 59609
822.4911 59433 59273 59111 58916 58670 58385 58105 57894 57806 57870 58082
827.7944 58431 58910 59536 60336 61325 62488 63776 65120 66457 67748 68979
833.0977 70151 71261 72294 73228 74046 74750 75359 75902 76397 76845 77229
838.4010 77521 77703 77769 77726 77586 77353 77022 76581 76019 75332 74525
843.7043 73610 72601 71511 70351 69136 67891 66642 65416 64234 63110 62058
849.0076 61094 60248 59547 59005 58613 58339 58143 57991 57876 57813 57832
854.3109 57951 58168 58457 58776 59090 59377 59642 59899 60163 60435 60707
859.6141 60965 61208 61452 61721 62041 62424 62869 63367 63908 64495 65134
864.9174 65832 66585 67374 68174 68956 69695 70374 70982 71511 71962 72336
870.2207 72637 72871 73040 73144 73189 73188 73157 73114 73066 73008 72927
875.5240 72810 72650 72453 72234 72011 71803 71621 71469 71343 71231 71115
880.8273 70980 70820 70637 70446 70273 70147 70091 70116 70216 70368 70541
886.1306 70719 70907 71131 71426 71812 72286 72812 73344 73844 74297 74719
891.4338 75143 75595 76082 76588 77087 77555 77987 78390 78777 79155 79522
896.7371 79873 80208 80536 80872 81226 81594 81964 82315 82633 82913 83158
902.0404 83379 83584 83778 83961 84130 84286 84435 84583 84738 84904 85083
907.3437 85278 85489 85719 85960 86198 86414 86597 86753 86907 87094 87337
912.6470 87636 87961 88269 88519 88695 88806 88879 88941 89006 89066 89103
917.9503 89104 89070 89020 88981 88973 88998 89049 89113 89186 89277 89398
923.2535 89562 89767 89995 90224 90424 90574 90660 90683 90661 90622 90595
928.5568 90599 90636 90689 90740 90783 90830 90908 91039 91226 91445 91648
933.8601 91788 91837 91794 91689 91560 91440 91343 91269 91208 91149 91090
939.1634 91037 90996 90973 90965 90964 90960 90940 90896 90825 90733 90629
944.4667 90524 90425 90337 90261 90198 90149 90110 90075 90035 89981 89909
949.7700 89826 89743 89670 89606 89539 89448 89312 89120 88876 88601 88321
955.0732 88061 87830 87626 87433 87236 87024 86794 86544 86269 85958 85593
960.3765 85160 84654 84091 83511 82971 82541 82277 82207 82314 82540 82802
965.6798 83021 83139 83129 82987 82716 82310 81753 81017 80066 78871 77424
970.9831 75758 73979 72265 70864 70036 69990 70823 72478 74764 77400 80090
976.2864 82593 84760 86536 87937 89019 89846 90480 90971 91354 91652 91881
981.5897 92056 92192 92304 92404 92490 92558 92599 92619 92638 92682 92773
986.8929 92913 93086 93256 93393 93474 93498 93474 93416 93337 93246 93153
992.1962 93065 92993 92942 92912 92896 92889 92886 92889 92903 92929 92961
997.4995 92988 92992 92960 92887 92781 92662 92554 92482 92456 92472 92512
1002.8028 92546 92546 92498 92406 92297 92207 92171 92212 92326 92490 92665
1008.1061 92816 92922 92987 93030 93076 93140 93222 93311 93389 93446 93481
1013.4094 93501 93517 93541 93578 93633 93704 93792 93895 94010 94132 94249
1018.7126 94346 94403 94407 94354 94249 94108 93941 93752 93537 93290 93013
1024.0160 92719 92433 92178 91974 91828 91733 91676 91640 91614 91592 91576
1029.3192 91569 91571 91575 91571 91552 91519 91477 91434 91395 91358 91321
1034.6226 91290 91273 91280 91312 91359 91402 91428 91435 91428 91412 91381
1039.9258 91324 91228 91093 90934 90773 90629 90507 90399 90297 90195 90100
1045.2291 90019 89956 89906 89861 89811 89754 89692 89623 89542 89436 89293
1050.5323 89107 88883 88636 88389 88162 87975 87836 87742 87677 87617 87543
1055.8357 87443 87325 87207 87113 87060 87053 87083 87131 87177 87203 87200
1061.1389 87164 87102 87020 86928 86829 86723 86607 86485 86366 86265 86197
1066.4423 86173 86189 86232 86286 86335 86374 86403 86427 86450 86468 86478
1071.7455 86476 86464 86447 86428 86404 86366 86302 86207 86089 85970 85872
1077.0488 85814 85800 85823 85860 85886 85870 85789 85628 85396 85121 84847
1082.3521 84619 84463 84379 84342 84316 84271 84194 84090 83970 83842 83711
1087.6554 83574 83426 83265 83091 82905 82704 82487 82252 81996 81712 81391
1092.9586 81024 80604 80129 79605 79040 78440 77808 77145 76457 75759 75080
1098.2620 74461 73952 73596 73428 73464 73704 74128 74700 75372 76090 76798
1103.5652 77448 78007 78464 78824 79102 79314 79469 79572 79622 79624 79590
1108.8685 79536 79477 79424 79377 79335 79292 79248 79208 79176 79149 79118
1114.1718 79071 78994 78886 78757 78624 78509 78423 78369 78334 78302 78256
1119.4751 78186 78091 77973 77836 77683 77519 77349 77176 77004 76837 76673
1124.7783 76516 76366 76228 76099 75978 75861 75750 75651 75577 75539 75540
1130.0817 75577 75635 75703 75772 75839 75906 75975 76043 76107 76163 76212
1135.3849 76255 76292 76318 76322 76293 76222 76113 75983 75856 75754 75688
1140.6882 75652 75630 75598 75539 75446 75318 75161 74977 74773 74551 74314
1145.9915 74062 73792 73500 73183 72846 72500 72159 71828 71502 71165 70800
1151.2948 70401 69978 69555 69153 68783 68437 68092 67725 67320 66874 66395
1156.5980 65894 65376 64840 64281 63693 63076 62431 61761 61069 60358 59633
1161.9014 58910 58214 57593 57108 56834 56843 57190 57887 58901 60149 61520
1167.2046 62896 64181 65314 66271 67055 67680 68160 68498 68694 68750 68676
1172.5079 68490 68217 67885 67514 67115 66691 66234 65739 65200 64618 63998
1177.8112 63346 62668 61963 61231 60468 59676 58855 58008 57137 56241 55317
1183.1145 54364 53388 52408 51454 50570 49799 49188 48779 48609 48712 49116
1188.4177 49842 50892 52246 53860 55669 57597 59569 61517 63384 65124 66701
1193.7211 68093 69294 70311 71169 71901 72539 73106 73610 74046 74401 74671
1199.0243 74865 75006 75121 75225 75320 75395 75432 75422 75366 75271 75149
1204.3276 75004 74836 74645 74432 74202 73962 73719 73476 73232 72984 72727
1209.6309 72457 72174 71878 71573 71262 70947 70630 70311 69989 69662 69327
1214.9342 68981 68620 68242 67841 67412 66949 66445 65905 65338 64764 64199
1220.2374 63656 63133 62623 62112 61592 61062 60526 59993 59471 58970 58506
1225.5408 58096 57766 57546 57468 57562 57851 58353 59071 59992 61088 62317
1230.8440 63629 64970 66293 67561 68749 69839 70820 71689 72449 73109 73687
1236.1473 74201 74671 75109 75521 75906 76259 76572 76838 77051 77209 77309
1241.4506 77349 77323 77223 77040 76775 76436 76042 75615 75174 74736 74309
1246.7539 73901 73516 73161 72841 72558 72313 72101 71914 71741 71574 71407
1252.0571 71239 71074 70918 70779 70659 70554 70459 70363 70254 70123 69967
1257.3605 69786 69588 69383 69176 68974 68776 68580 68384 68183 67973 67754
1262.6637 67525 67291 67058 66828 66605 66393 66194 66013 65850 65704 65565
1267.9670 65422 65266 65097 64919 64742 64572 64409 64251 64089 63921 63745
1273.2703 63566 63388 63217 63054 62896 62737 62570 62391 62199 61994 61782
1278.5736 61563 61340 61111 60876 60639 60403 60173 59950 59732 59514 59294
1283.8768 59069 58843 58617 58398 58185 57977 57769 57557 57337 57113 56888
1289.1802 56669 56459 56257 56060 55863 55666 55469 55275 55085 54897 54710
1294.4834 54524 54339 54162 54000 53858 53743 53657 53603 53582 53594 53638
1299.7867 53714 53822 53969 54160 54405 54707 55072 55500 55992 56548 57163
1305.0900 57828 58529 59251 59982 60717 61456 62195 62929 63646 64329 64964
1310.3933 65542 66059 66520 66931 67300 67635 67942 68230 68511 68802 69121
1315.6965 69482 69895 70358 70868 71421 72017 72649 73303 73955 74578 75151
1320.9999 75666 76122 76518 76848 77106 77283 77376 77388 77321 77180 76970
1326.3031 76696 76365 75988 75573 75127 74653 74152 73628 73088 72538 71986
1331.6064 71433 70878 70317 69753 69191 68637 68088 67538 66976 66398 65809
1336.9097 65222 64648 64085 63521 62943 62345 61741 61150 60587 60047 59514
1342.2130 58973 58416 57846 57272 56702 56139 55577 55009 54431 53847 53266
1347.5162 52697 52145 51612 51096 50597 50109 49628 49147 48664 48185 47719
1352.8196 47277 46864 46479 46117 45775 45452 45150 44876 44633 44424 44249
1358.1228 44109 44006 43946 43934 43974 44066 44213 44425 44718 45104 45571
1363.4261 46081 46597 47108 47627 48170 48745 49347 49968 50601 51247 51902
1368.7294 52547 53152 53694 54167 54585 54966 55326 55671 56009 56345 56684
1374.0327 57018 57325 57581 57783 57941 58073 58193 58308 58423 58541 58665
1379.3359 58796 58936 59085 59240 59403 59573 59753 59946 60157 60385 60626
1384.6393 60875 61133 61415 61750 62177 62710 63307 63889 64408 64871 65319
1389.9425 65791 66304 66847 67388 67901 68386 68871 69401 70022 70753 71548
1395.2458 72310 72967 73517 74004 74485 75023 75669 76431 77237 77986 78626
1400.5491 79182 79708 80245 80804 81370 81921 82444 82943 83425 83886 84309
1405.8524 84681 85005 85302 85588 85870 86143 86395 86616 86802 86957 87091
1411.1556 87214 87339 87478 87634 87801 87963 88104 88208 88273 88302 88309
1416.4590 88307 88303 88285 88221 88058 87768 87408 87099 86902 86792 86718
1421.7622 86637 86516 86328 86065 85757 85456 85204 85002 84826 84646 84445
1427.0656 84222 83982 83724 83422 83026 82493 81829 81108 80404 79734 79055
1432.3688 78307 77472 76592 75751 75001 74321 73612 72703 71459 70009 68723
1437.6721 67776 67054 66394 65703 64957 64178 63410 62692 62043 61467 60973
1442.9753 60579 60308 60178 60193 60337 60589 60939 61407 62044 62907 63986
1448.2787 65172 66330 67409 68455 69543 70735 72045 73425 74793 76077 77254
1453.5819 78331 79326 80259 81154 82046 82982 83981 84976 85837 86507 87032
1458.8853 87464 87829 88132 88375 88563 88705 88812 88893 88953 88990 88989
1464.1885 88929 88805 88653 88527 88449 88409 88386 88360 88318 88255 88169
1469.4918 88063 87938 87789 87596 87307 86842 86185 85482 84916 84516 84207
1474.7950 83898 83512 83005 82395 81765 81189 80680 80208 79741 79263 78773
1480.0984 78276 77773 77267 76770 76293 75844 75412 74980 74536 74080 73618
1485.4016 73149 72655 72114 71528 70939 70404 69942 69524 69094 68626 68160
1490.7050 67773 67491 67276 67088 66907 66737 66591 66479 66408 66375 66369
1496.0082 66367 66347 66306 66260 66225 66209 66205 66198 66175 66135 66087
1501.3115 66037 65995 65969 65959 65964 65979 66001 66040 66140 66409 66989
1506.6147 67811 68545 69119 69683 70325 71031 71749 72447 73136 73856 74648
1511.9181 75508 76382 77193 77904 78521 79077 79599 80111 80640 81214 81819
1517.2213 82366 82775 83042 83208 83318 83406 83507 83647 83817 83949 83998
1522.5247 83993 83967 83927 83859 83748 83585 83388 83188 83008 82844 82673
1527.8279 82478 82259 82026 81792 81557 81314 81061 80795 80518 80223 79899
1533.1312 79541 79175 78834 78522 78215 77891 77546 77191 76840 76500 76154
1538.4344 75759 75258 74687 74217 73910 73653 73350 72987 72609 72270 71984
1543.7378 71724 71448 71123 70750 70360 69983 69626 69282 68945 68615 68298
1549.0410 68001 67726 67469 67219 66972 66728 66489 66258 66041 65850 65701
1554.3444 65595 65504 65400 65275 65136 64995 64880 64865 65135 65866 66644
1559.6476 66969 67014 67000 66998 67026 67087 67185 67328 67527 67794 68125
1564.9509 68492 68844 69145 69382 69564 69715 69869 70080 70404 70836 71252
1570.2542 71525 71655 71709 71741 71780 71829 71883 71928 71953 71950 71911
1575.5575 71822 71685 71530 71387 71253 71104 70923 70701 70436 70136 69814
1580.8607 69479 69131 68768 68387 67988 67575 67150 66711 66255 65776 65272
1586.1641 64747 64208 63665 63126 62598 62083 61588 61125 60714 60372 60113
1591.4674 59942 59855 59845 59912 60062 60300 60629 61040 61521 62056 62637
1596.7706 63257 63909 64579 65251 65915 66565 67204 67830 68435 69009 69541
1602.0740 70024 70458 70843 71181 71475 71733 71965 72182 72388 72580 72753
1607.3772 72899 73014 73100 73162 73203 73225 73228 73218 73199 73176 73150
1612.6805 73120 73082 73034 72976 72909 72826 72706 72513 72236 71930 71657
1617.9838 71413 71158 70856 70491 70072 69630 69199 68792 68389 67951 67437
1623.2871 66863 66312 65854 65486 65169 64872 64576 64277 63983 63714 63486
1628.5903 63302 63147 63009 62883 62772 62681 62615 62570 62537 62511 62500
1633.8937 62526 62642 62911 63328 63748 64050 64268 64481 64732 65028 65358
1639.1969 65713 66088 66490 66929 67410 67932 68477 69018 69526 69984 70398
1644.5002 70799 71245 71814 72571 73498 74468 75343 76085 76710 77236 77672
1649.8035 78030 78332 78598 78855 79149 79609 80517 81843 82763 83149 83362
1655.1068 83558 83775 84016 84277 84553 84837 85126 85418 85706 85978 86218
1660.4100 86420 86592 86760 86963 87228 87529 87807 88023 88189 88331 88473
1665.7134 88620 88765 88899 89022 89145 89289 89468 89665 89842 89979 90091
1671.0166 90200 90312 90413 90490 90541 90578 90623 90708 90862 91066 91253
1676.3199 91386 91478 91555 91634 91722 91823 91934 92048 92158 92258 92351
1681.6232 92441 92529 92613 92690 92761 92859 93016 93197 93361 93503 93626
1686.9265 93733 93828 93917 94010 94117 94242 94378 94516 94646 94763 94868
1692.2297 94962 95047 95120 95180 95228 95274 95341 95467 95648 95823 95955
1697.5331 96052 96131 96207 96292 96397 96521 96617 96658 96677 96695 96716
1702.8363 96743 96777 96824 96891 96977 97076 97175 97262 97329 97373 97400
1708.1396 97417 97429 97443 97464 97497 97540 97589 97640 97688 97730 97765
1713.4429 97789 97798 97791 97773 97754 97736 97716 97695 97690 97727 97815
1718.7462 97920 98008 98074 98122 98157 98184 98203 98212 98211 98204 98199
1724.0494 98205 98222 98249 98279 98306 98328 98347 98366 98384 98401 98412
1729.3528 98414 98409 98401 98399 98405 98413 98412 98384 98302 98163 98040
1734.6560 98008 98045 98101 98150 98186 98206 98209 98191 98144 98067 97975
1739.9594 97901 97866 97860 97863 97855 97830 97791 97752 97731 97727 97730
1745.2626 97728 97715 97690 97657 97620 97579 97532 97479 97424 97370 97326
1750.5659 97297 97289 97300 97316 97325 97321 97308 97287 97266 97246 97230
1755.8691 97216 97202 97190 97186 97194 97214 97241 97272 97301 97326 97341
1761.1725 97341 97326 97302 97278 97261 97251 97245 97243 97244 97250 97261
1766.4757 97275 97287 97294 97297 97302 97316 97342 97373 97398 97406 97387
1771.7791 97348 97322 97338 97389 97451 97505 97546 97574 97593 97608 97624
1777.0823 97642 97660 97677 97693 97706 97713 97713 97702 97686 97672 97667
1782.3856 97672 97683 97692 97691 97676 97649 97623 97607 97607 97621 97642
1787.6888 97662 97674 97673 97659 97637 97618 97611 97622 97645 97661 97652
1792.9922 97616 97564 97510 97461 97419 97390 97380 97392 97419 97448 97460
1798.2954 97442 97388 97310 97238 97201 97215 97271 97343 97408 97448 97463
1803.5988 97468 97475 97488 97503 97504 97481 97433 97371 97314 97277 97263
1808.9020 97267 97279 97293 97305 97312 97311 97296 97264 97224 97186 97167
1814.2053 97175 97207 97250 97284 97296 97283 97256 97233 97229 97247 97276
1819.5085 97296 97292 97257 97204 97156 97138 97159 97205 97248 97256 97214
1824.8119 97134 97062 97042 97080 97152 97230 97300 97355 97390 97395 97352
1830.1151 97261 97145 97035 96953 96907 96899 96923 96967 97018 97061 97086
1835.4185 97087 97057 96996 96916 96839 96793 96798 96855 96948 97049 97126
1840.7217 97155 97127 97057 96969 96889 96839 96824 96826 96815 96777 96719
1846.0250 96657 96599 96544 96495 96458 96444 96463 96516 96594 96680 96754
1851.3282 96804 96827 96834 96836 96844 96859 96875 96881 96865 96822 96754
1856.6316 96674 96603 96561 96562 96603 96667 96733 96778 96792 96770 96718
1861.9348 96644 96561 96481 96419 96384 96377 96390 96410 96421 96415 96397
1867.2382 96384 96396 96444 96515 96581 96612 96606 96581 96560 96559 96579
1872.5414 96609 96630 96627 96592 96530 96454 96381 96326 96294 96284 96287
1877.8447 96293 96295 96295 96299 96309 96323 96332 96329 96318 96309 96316
1883.1479 96346 96387 96422 96431 96412 96375 96338 96315 96305 96300 96281
1888.4513 96232 96147 96037 95932 95858 95820 95806 95799 95789 95782 95791
1893.7545 95832 95904 95988 96057 96093 96101 96094 96081 96058 96012 95938
1899.0579 95850 95777 95749 95776 95847 95935 96011 96052 96045 95985 95877
1904.3611 95737 95595 95478 95405 95384 95407 95467 95557 95669 95785 95876
1909.6644 95908 95861 95752 95626 95539 95524 95578 95662 95716 95692 95579
1914.9677 95410 95234 95093 95004 94965 94967 95004 95074 95170 95272 95350
1920.2710 95377 95338 95233 95084 94936 94841 94833 94914 95057 95222 95373
1925.5742 95481 95528 95511 95435 95316 95172 95029 94921 94880 94922 95036
1930.8776 95185 95320 95404 95422 95375 95275 95138 94990 94870 94823 94872
1936.1808 95008 95183 95348 95481 95595 95714 95836 95914 95876 95670 95296
1941.4841 94826 94391 94126 94091 94243 94492 94772 95049 95307 95524 95671
1946.7874 95729 95709 95649 95596 95587 95628 95693 95727 95678 95525 95296
1952.0907 95062 94904 94867 94933 95029 95069 95012 94891 94796 94815 94984
1957.3939 95266 95582 95854 96036 96120 96116 96030 95873 95674 95487 95365
1962.6973 95314 95280 95175 94941 94604 94275 94096 94157 94427 94760 94983
1968.0005 95020 94933 94850 94856 94937 94992 94911 94672 94371 94172 94207
1973.3038 94505 94976 95458 95782 95827 95549 94988 94270 93592 93173 93168
1978.6071 93582 94258 94937 95383 95466 95195 94684 94094 93581 93262 93198
1983.9104 93390 93786 94295 94806 95228 95508 95642 95666 95635 95591 95547
1989.2136 95486 95378 95200 94954 94669 94397 94187 94059 93998 93967 93927
1994.5170 93845 93698 93492 93267 93109 93115 93356 93828 94427 94983 95328
1999.8202 95374 95154 94797 94466 94282 94292 94457 94699 94934 95113 95221
2005.1235 95273 95288 95275 95221 95101 94892 94599 94256 93922 93652 93472
2010.4268 93369 93303 93229 93126 93006 92899 92836 92839 92919 93084 93346
2015.7301 93705 94136 94579 94947 95151 95134 94890 94467 93964 93511 93234
2021.0333 93206 93419 93791 94212 94602 94929 95192 95366 95378 95145 94651
2026.3367 94009 93437 93150 93250 93666 94202 94659 94938 95067 95150 95273
2031.6399 95448 95617 95701 95647 95458 95190 94929 94760 94733 94833 94983
2036.9432 95081 95056 94918 94746 94633 94617 94649 94637 94516 94302 94080
2042.2465 93936 93890 93890 93856 93741 93556 93358 93202 93120 93111 93162
2047.5498 93251 93348 93419 93442 93432 93438 93518 93693 93925 94144 94282
2052.8530 94307 94234 94113 93994 93913 93887 93926 94032 94183 94328 94395
2058.1563 94329 94135 93881 93672 93592 93666 93845 94041 94169 94186 94103
2063.4597 93972 93855 93798 93807 93847 93872 93849 93787 93724 93702 93734
2068.7629 93785 93793 93699 93491 93209 92935 92746 92688 92749 92875 92995
2074.0662 93055 93038 92969 92901 92885 92948 93082 93255 93422 93549 93618
2079.3694 93627 93582 93490 93368 93243 93150 93124 93177 93293 93427 93531
2084.6729 93571 93549 93497 93452 93438 93450 93464 93457 93426 93385 93358
2089.9761 93363 93393 93428 93445 93437 93415 93401 93412 93443 93469 93458
2095.2793 93394 93295 93197 93136 93117 93121 93120 93105 93094 93118 93191
2100.5825 93290 93365 93377 93321 93233 93163 93138 93152 93167 93148 93084
2105.8860 92986 92883 92798 92743 92728 92757 92832 92942 93065 93172 93245
2111.1892 93284 93311 93349 93403 93458 93489 93476 93423 93351 93291 93263
2116.4924 93271 93306 93355 93399 93423 93410 93357 93280 93211 93190 93237
2121.7957 93344 93473 93583 93653 93680 93678 93653 93600 93516 93417 93342
2127.0991 93337 93417 93557 93697 93775 93764 93680 93570 93474 93411 93375
2132.4023 93354 93340 93337 93342 93339 93307 93239 93156 93110 93145 93267
2137.7056 93433 93566 93604 93537 93414 93315 93298 93367 93472 93541 93520
2143.0088 93401 93221 93042 92931 92937 93078 93327 93608 93809 93829 93631
2148.3123 93276 92922 92753 92900 93369 94018 94609 94914 94834 94443 93954
2153.6155 93602 93528 93722 94055 94378 94624 94835 95101 95448 95763 95838
2158.9187 95514 94815 93941 93135 92540 92175 91984 91906 91904 91943 91974
2164.2219 91946 91855 91764 91786 92005 92404 92850 93154 93174 92897 92444
2169.5254 92009 91757 91750 91942 92222 92480 92660 92766 92829 92859 92828
2174.8286 92691 92444 92160 91980 92041 92391 92954 93558 94018 94220 94158
2180.1318 93904 93557 93202 92901 92702 92648 92755 92996 93298 93572 93750
2185.4351 93812 93782 93709 93639 93608 93629 93700 93792 93860 93865 93791
2190.7385 93656 93505 93371 93258 93143 93000 92828 92660 92544 92516 92579
2196.0417 92717 92905 93127 93361 93576 93723 93756 93661 93466 93237 93039
2201.3450 92914 92865 92863 92868 92847 92784 92687 92592 92551 92609 92773
2206.6482 92992 93176 93237 93141 92929 92696 92537 92494 92549 92645 92730
2211.9517 92775 92779 92748 92678 92567 92424 92286 92206 92225 92349 92540
2217.2549 92734 92877 92945 92954 92936 92918 92908 92890 92844 92758 92636
2222.5581 92497 92369 92273 92224 92224 92265 92341 92445 92573 92716 92857
2227.8613 92967 93019 93000 92927 92838 92772 92751 92765 92781 92762 92692
2233.1648 92579 92458 92365 92322 92330 92368 92404 92414 92398 92378 92387
2238.4680 92440 92525 92603 92630 92592 92508 92422 92367 92352 92358 92360
2243.7712 92346 92323 92305 92300 92306 92327 92379 92485 92656 92870 93070
2249.0745 93188 93182 93054 92856 92656 92511 92446 92446 92470 92469 92411
2254.3779 92292 92145 92022 91973 92010 92106 92203 92251 92236 92194 92190
2259.6812 92276 92460 92692 92885 92962 92888 92693 92449 92240 92124 92118
2264.9844 92203 92339 92487 92618 92715 92762 92745 92650 92483 92271 92069
2270.2876 91932 91896 91953 92059 92152 92193 92184 92163 92176 92242 92344
2275.5911 92440 92490 92484 92441 92392 92358 92344 92342 92344 92347 92349
2280.8943 92347 92332 92298 92248 92196 92154 92130 92122 92124 92135 92159
2286.1975 92200 92254 92304 92330 92321 92283 92235 92199 92185 92190 92201
2291.5007 92213 92228 92251 92288 92328 92356 92353 92313 92246 92172 92117
2296.8042 92102 92133 92205 92304 92409 92500 92558 92574 92549 92496 92430
2302.1074 92366 92310 92264 92229 92208 92208 92230 92275 92333 92396 92454
2307.4106 92499 92523 92517 92477 92404 92316 92238 92196 92203 92255 92332
2312.7139 92408 92462 92486 92487 92478 92475 92486 92509 92531 92536 92516
2318.0173 92473 92425 92392 92388 92414 92456 92496 92522 92532 92529 92523
2323.3206 92520 92529 92557 92606 92673 92746 92813 92864 92892 92899 92891
2328.6238 92875 92855 92831 92800 92757 92701 92638 92579 92541 92538 92567
2333.9270 92613 92652 92666 92654 92632 92624 92647 92702 92773 92843 92899
2339.2305 92933 92941 92920 92871 92808 92750 92717 92713 92726 92735 92723
2344.5337 92692 92652 92619 92600 92591 92589 92587 92580 92560 92517 92441
2349.8369 92328 92189 92058 91982 92005 92139 92371 92666 92978 93258 93469
2355.1401 93595 93654 93678 93696 93712 93707 93655 93548 93406 93260 93141
2360.4436 93059 93011 92989 92995 93026 93077 93128 93156 93150 93117 93084
2365.7468 93084 93137 93233 93335 93387 93345 93196 92973 92738 92562 92496
2371.0500 92547 92681 92836 92948 92975 92914 92798 92673 92577 92520 92491
2376.3533 92462 92414 92347 92280 92235 92224 92243 92272 92288 92279 92243
2381.6567 92193 92143 92105 92086 92082 92088 92098 92109 92117 92120 92118
2386.9600 92109 92093 92074 92055 92041 92032 92027 92027 92029 92032 92036
2392.2632 92036 92027 92005 91970 91926 91878 91836 91807 91797 91810 91839
2397.5664 91874 91900 91906 91893 91871 91854 91855 91874 91901 91920 91924
2402.8699 91914 91897 91887 91893 91918 91957 91999 92033 92049 92044 92018
2408.1731 91978 91928 91876 91827 91788 91764 91754 91751 91742 91720 91686
2413.4763 91652 91630 91628 91642 91661 91677 91691 91709 91736 91767 91789
2418.7795 91793 91776 91751 91735 91738 91759 91789 91814 91827 91826 91812
2424.0830 91786 91751 91710 91673 91651 91649 91665 91683 91687 91664 91619
2429.3862 91569 91534 91530 91559 91607 91658 91697 91721 91731 91730 91716
2434.6895 91687 91644 91594 91553 91533 91535 91553 91572 91583 91583 91577
2439.9927 91571 91565 91552 91530 91503 91479 91472 91485 91513 91542 91563
2445.2961 91573 91575 91578 91586 91598 91612 91624 91632 91637 91634 91620
2450.5994 91589 91543 91487 91432 91391 91369 91370 91388 91415 91446 91473
2455.9026 91493 91506 91511 91512 91511 91507 91500 91485 91461 91429 91394
2461.2058 91357 91320 91279 91233 91185 91142 91111 91096 91093 91093 91089
2466.5093 91076 91058 91041 91029 91025 91027 91032 91037 91040 91035 91016
2471.8125 90981 90935 90888 90854 90840 90847 90864 90878 90877 90855 90816
2477.1157 90765 90712 90665 90632 90618 90626 90650 90681 90706 90712 90695
2482.4189 90656 90608 90564 90536 90527 90535 90552 90566 90572 90568 90556
2487.7224 90544 90541 90553 90579 90617 90661 90705 90745 90774 90788 90780
2493.0256 90748 90701 90654 90625 90627 90657 90701 90735 90745 90732 90711
2498.3289 90703 90719 90756 90800 90835 90851 90850 90838 90823 90807 90793
2503.6321 90783 90781 90788 90798 90804 90798 90779 90751 90721 90694 90668
2508.9355 90645 90629 90634 90671 90741 90829 90906 90948 90943 90900 90837
2514.2388 90775 90724 90678 90629 90573 90519 90484 90483 90523 90588 90651
2519.5420 90687 90682 90643 90595 90562 90563 90597 90655 90721 90784 90835
2524.8452 90868 90881 90870 90837 90785 90720 90643 90556 90460 90364 90282
2530.1487 90231 90219 90238 90269 90290 90294 90289 90296 90330 90390 90450
2535.4519 90481 90464 90410 90348 90308 90305 90327 90349 90348 90320 90273
2540.7551 90222 90169 90108 90030 89938 89847 89780 89752 89761 89788 89811
2546.0583 89814 89800 89780 89770 89775 89790 89799 89786 89747 89693 89639
2551.3618 89604 89590 89588 89580 89553 89506 89453 89417 89414 89450 89510
2556.6650 89573 89616 89629 89609 89568 89516 89464 89417 89379 89351 89336
2561.9683 89337 89354 89384 89419 89452 89480 89500 89515 89527 89537 89544
2567.2715 89546 89542 89532 89520 89509 89498 89492 89493 89508 89547 89611
2572.5750 89692 89773 89833 89860 89852 89824 89793 89772 89763 89760 89753
2577.8782 89741 89725 89712 89707 89712 89725 89746 89771 89794 89806 89799
2583.1814 89767 89718 89666 89630 89621 89640 89675 89710 89735 89746 89743
2588.4849 89733 89718 89700 89679 89652 89620 89581 89535 89484 89433 89385
2593.7881 89345 89315 89293 89274 89254 89229 89200 89170 89140 89116 89099
2599.0913 89089 89085 89082 89073 89051 89010 88947 88871 88795 88737 88709
2604.3945 88706 88713 88710 88682 88631 88573 88528 88508 88513 88530 88545
2609.6980 88550 88546 88539 88535 88538 88548 88567 88595 88630 88664 88683
2615.0012 88681 88655 88616 88578 88554 88547 88554 88570 88592 88620 88653
2620.3044 88685 88707 88716 88713 88711 88718 88737 88762 88779 88776 88752
2625.6077 88714 88675 88646 88634 88641 88660 88683 88699 88700 88682 88651
2630.9111 88614 88579 88552 88532 88515 88500 88487 88476 88470 88468 88465
2636.2144 88462 88457 88455 88462 88477 88498 88517 88525 88519 88502 88483
2641.5176 88473 88478 88493 88511 88521 88522 88518 88520 88535 88563 88595
2646.8208 88619 88627 88617 88596 88576 88565 88569 88582 88598 88608 88610
2652.1243 88606 88602 88600 88600 88598 88592 88584 88576 88573 88572 88565
2657.4275 88545 88511 88470 88436 88422 88430 88454 88481 88497 88497 88483
2662.7307 88462 88445 88438 88440 88449 88460 88469 88472 88472 88471 88470
2668.0339 88471 88472 88469 88460 88445 88425 88403 88384 88371 88366 88369
2673.3374 88377 88386 88396 88404 88414 88427 88441 88453 88462 88469 88477
2678.6406 88495 88523 88558 88592 88615 88625 88629 88637 88657 88690 88728
2683.9438 88762 88782 88788 88782 88769 88755 88743 88736 88735 88738 88744
2689.2471 88749 88749 88748 88748 88757 88776 88804 88833 88859 88878 88892
2694.5505 88906 88922 88939 88955 88966 88968 88966 88962 88964 88974 88994
2699.8538 89023 89054 89080 89094 89092 89078 89059 89045 89042 89053 89069
2705.1570 89082 89084 89075 89057 89038 89020 89006 88995 88989 88988 88991
2710.4602 88996 88996 88988 88973 88958 88950 88953 88965 88979 88989 88991
2715.7637 88989 88986 88987 88993 89003 89015 89024 89030 89031 89030 89026
2721.0669 89023 89020 89018 89015 89010 89000 88984 88964 88943 88931 88936
2726.3701 88959 88998 89041 89077 89098 89105 89105 89106 89115 89130 89148
2731.6733 89165 89177 89188 89202 89221 89244 89266 89279 89278 89265 89246
2736.9768 89234 89239 89265 89308 89358 89403 89433 89448 89450 89449 89453
2742.2800 89465 89489 89520 89553 89583 89602 89609 89605 89595 89585 89580
2747.5833 89578 89575 89565 89549 89532 89525 89535 89564 89603 89642 89673
2752.8865 89691 89701 89707 89710 89710 89703 89689 89671 89653 89638 89628
2758.1899 89621 89618 89622 89635 89658 89686 89712 89731 89741 89744 89743
2763.4932 89740 89734 89728 89723 89726 89739 89762 89789 89814 89831 89840
2768.7964 89844 89843 89841 89839 89845 89865 89902 89950 89994 90019 90015
2774.0996 89989 89956 89936 89940 89967 90009 90051 90088 90117 90140 90160
2779.4031 90176 90184 90182 90171 90154 90138 90129 90131 90143 90161 90182
2784.7063 90201 90218 90233 90243 90247 90242 90226 90204 90178 90155 90140
2790.0095 90133 90135 90143 90153 90165 90177 90188 90200 90212 90225 90235
2795.3127 90240 90239 90234 90230 90231 90238 90249 90262 90273 90283 90292
2800.6162 90299 90299 90291 90276 90261 90253 90255 90263 90269 90266 90255
2805.9194 90246 90248 90268 90298 90328 90348 90354 90352 90349 90349 90353
2811.2227 90359 90364 90368 90370 90368 90357 90334 90300 90262 90226 90199
2816.5259 90184 90178 90180 90189 90206 90231 90263 90298 90331 90357 90373
2821.8293 90376 90367 90348 90319 90283 90240 90195 90153 90123 90109 90114
2827.1326 90132 90152 90168 90175 90172 90164 90154 90141 90125 90106 90085
2832.4358 90069 90063 90070 90090 90117 90144 90162 90166 90152 90124 90089
2837.7390 90057 90036 90027 90028 90034 90040 90046 90054 90063 90071 90075
2843.0425 90072 90061 90042 90019 89990 89957 89922 89890 89867 89858 89861
2848.3457 89872 89881 89885 89885 89888 89900 89919 89942 89959 89968 89966
2853.6489 89959 89950 89942 89934 89923 89910 89898 89891 89893 89902 89911
2858.9521 89915 89909 89893 89873 89856 89848 89847 89849 89848 89844 89840
2864.2556 89843 89858 89883 89910 89932 89942 89941 89934 89924 89912 89898
2869.5588 89883 89871 89868 89874 89883 89884 89866 89829 89783 89742 89717
2874.8621 89709 89712 89717 89720 89722 89726 89732 89733 89721 89694 89654
2880.1653 89613 89580 89560 89551 89546 89539 89527 89511 89490 89462 89426
2885.4688 89383 89341 89312 89304 89315 89335 89350 89353 89347 89340 89340
2890.7720 89350 89364 89378 89385 89385 89373 89348 89308 89256 89203 89161
2896.0752 89139 89137 89148 89162 89172 89180 89194 89217 89250 89283 89307
2901.3784 89315 89304 89275 89233 89185 89140 89106 89091 89091 89099 89099
2906.6819 89081 89045 89002 88972 88968 88994 89039 89083 89109 89109 89088
2911.9851 89061 89045 89050 89073 89104 89128 89133 89118 89092 89067 89052
2917.2883 89049 89054 89059 89059 89056 89054 89058 89072 89091 89108 89114
2922.5916 89103 89079 89052 89035 89037 89061 89104 89156 89207 89249 89280
2927.8950 89300 89313 89326 89346 89376 89414 89451 89471 89466 89434 89385
2933.1982 89338 89308 89304 89323 89355 89388 89409 89412 89395 89363 89322
2938.5015 89283 89255 89241 89239 89242 89241 89232 89215 89194 89172 89153
2943.8047 89138 89129 89131 89144 89167 89193 89210 89209 89186 89144 89094
2949.1082 89049 89019 89008 89012 89023 89030 89026 89011 88989 88968 88951
2954.4114 88940 88931 88917 88895 88865 88833 88808 88794 88794 88807 88828
2959.7146 88853 88878 88899 88911 88913 88902 88879 88842 88795 88739 88677
2965.0178 88615 88557 88507 88469 88442 88426 88421 88422 88424 88420 88400
2970.3213 88361 88304 88237 88170 88113 88070 88044 88032 88030 88036 88041
2975.6245 88039 88027 88004 87976 87952 87937 87929 87919 87897 87859 87808
2980.9277 87755 87709 87676 87651 87624 87587 87539 87490 87451 87429 87425
2986.2310 87429 87427 87412 87387 87363 87354 87364 87385 87400 87389 87346
2991.5344 87280 87212 87165 87151 87169 87202 87231 87237 87214 87164 87099
2996.8376 87033 86977 86938 86915 86903 86892 86872 86838 86792 86740 86694
3002.1409 86663 86650 86653 86665 86676 86680 86675 86662 86646 86631 86619
3007.4441 86606 86591 86570 86542 86511 86482 86458 86443 86437 86439 86446
3012.7476 86455 86459 86455 86439 86416 86392 86375 86369 86373 86378 86375
3018.0508 86355 86316 86261 86199 86143 86104 86090 86100 86127 86157 86177
3023.3540 86177 86157 86127 86098 86085 86095 86126 86169 86208 86232 86236
3028.6572 86225 86207 86189 86172 86149 86116 86073 86030 86002 85998 86013
3033.9607 86035 86047 86040 86017 85991 85972 85963 85957 85942 85913 85872
3039.2639 85831 85798 85778 85765 85751 85730 85699 85665 85632 85601 85569
3044.5671 85529 85475 85409 85342 85284 85246 85231 85236 85248 85257 85255
3049.8704 85239 85212 85178 85143 85114 85098 85095 85102 85106 85094 85057
3055.1738 84996 84923 84858 84812 84789 84781 84774 84760 84741 84723 84711
3060.4771 84706 84702 84697 84690 84688 84694 84709 84722 84724 84708 84680
3065.7803 84652 84635 84631 84632 84627 84608 84574 84534 84496 84462 84430
3071.0835 84393 84346 84287 84221 84155 84098 84054 84022 83997 83975 83950
3076.3870 83924 83902 83888 83881 83876 83867 83849 83826 83804 83792 83792
3081.6902 83799 83800 83784 83746 83694 83638 83593 83565 83554 83552 83546
3086.9934 83530 83501 83464 83425 83388 83354 83321 83288 83253 83219 83185
3092.2966 83153 83123 83095 83067 83040 83013 82987 82964 82947 82934 82921
3097.6001 82902 82870 82825 82772 82715 82658 82599 82538 82480 82436 82416
3102.9033 82425 82455 82492 82522 82533 82520 82486 82431 82363 82290 82226
3108.2065 82181 82161 82165 82182 82201 82212 82212 82203 82187 82169 82151
3113.5098 82134 82114 82088 82050 82001 81945 81895 81859 81841 81833 81821
3118.8132 81790 81737 81668 81599 81546 81516 81513 81532 81565 81603 81638
3124.1165 81659 81657 81631 81585 81535 81492 81467 81454 81443 81424 81391
3129.4197 81350 81306 81267 81232 81196 81154 81105 81052 81003 80965 80944
3134.7229 80943 80962 80996 81038 81073 81090 81084 81059 81031 81015 81019
3140.0264 81034 81042 81028 80987 80933 80888 80866 80868 80876 80871 80844
3145.3296 80800 80755 80722 80708 80711 80723 80737 80751 80761 80760 80741
3150.6328 80702 80648 80590 80542 80514 80510 80527 80556 80585 80605 80612
3155.9360 80608 80600 80593 80591 80589 80580 80560 80530 80497 80471 80461
3161.2395 80467 80488 80512 80526 80517 80480 80420 80355 80306 80292 80317
3166.5427 80368 80427 80475 80499 80497 80472 80431 80384 80345 80323 80320
3171.8459 80331 80344 80347 80337 80314 80284 80251 80215 80180 80152 80139
3177.1492 80145 80167 80194 80213 80213 80195 80169 80147 80137 80143 80162
3182.4526 80186 80206 80213 80201 80171 80127 80082 80051 80048 80077 80133
3187.7559 80199 80256 80290 80299 80288 80266 80237 80206 80173 80146 80133
3193.0591 80142 80172 80213 80247 80260 80247 80214 80173 80138 80121 80122
3198.3623 80135 80148 80148 80127 80088 80043 80008 79994 80001 80019 80035
3203.6658 80043 80047 80060 80094 80150 80214 80266 80284 80264 80217 80169
3208.9690 80148 80164 80208 80253 80274 80256 80208 80152 80112 80100 80116
3214.2722 80146 80172 80186 80184 80171 80152 80131 80113 80099 80092 80092
3219.5754 80094 80094 80091 80084 80077 80072 80070 80067 80061 80051 80040
3224.8789 80028 80018 80008 80000 79995 80001 80019 80045 80069 80079 80068
3230.1821 80042 80017 80010 80030 80073 80120 80154 80161 80145 80120 80104
3235.4854 80108 80133 80167 80193 80200 80184 80157 80135 80133 80157 80201
3240.7886 80249 80283 80290 80271 80231 80187 80149 80126 80120 80126 80143
3246.0920 80170 80206 80248 80287 80314 80322 80314 80298 80287 80292 80314
3251.3953 80345 80375 80394 80401 80397 80388 80381 80382 80398 80431 80481
3256.6985 80539 80592 80627 80635 80617 80582 80546 80519 80506 80502 80500
3262.0017 80494 80484 80472 80462 80454 80446 80435 80425 80427 80449 80493
3267.3052 80549 80598 80626 80628 80611 80591 80577 80572 80571 80564 80544
3272.6084 80507 80456 80399 80349 80320 80323 80357 80407 80450 80465 80444
3277.9116 80398 80344 80297 80260 80229 80199 80174 80159 80158 80163 80155
3283.2148 80118 80049 79964 79888 79839 79822 79822 79816 79792 79747 79695
3288.5183 79649 79619 79603 79592 79577 79553 79522 79485 79443 79395 79340
3293.8215 79274 79200 79122 79045 78979 78930 78902 78893 78895 78895 78880
3299.1248 78847 78798 78741 78681 78617 78543 78457 78363 78270 78190 78125
3304.4280 78070 78011 77936 77844 77744 77648 77569 77510 77466 77425 77378
3309.7314 77317 77244 77166 77092 77028 76976 76931 76883 76822 76742 76644
3315.0347 76538 76435 76345 76273 76218 76173 76129 76076 76009 75929 75843
3320.3379 75759 75690 75644 75623 75622 75633 75642 75640 75622 75588 75546
3325.6411 75502 75463 75435 75417 75412 75416 75431 75457 75491 75531 75570
3330.9446 75601 75619 75627 75633 75645 75673 75718 75774 75832 75886 75932
3336.2478 75973 76012 76052 76089 76120 76143 76158 76170 76186 76214 76259
3341.5510 76324 76406 76497 76587 76667 76729 76770 76792 76800 76800 76797
3346.8542 76797 76804 76817 76835 76853 76870 76885 76896 76905 76909 76908
3352.1577 76902 76891 76879 76864 76848 76827 76800 76764 76719 76665 76609
3357.4609 76561 76532 76529 76551 76581 76601 76593 76551 76479 76390 76298
3362.7642 76209 76129 76056 75987 75922 75856 75788 75720 75655 75601 75562
3368.0674 75538 75525 75517 75506 75486 75452 75398 75320 75215 75090 74955
3373.3708 74826 74713 74624 74556 74501 74445 74380 74301 74213 74125 74051
3378.6741 73996 73959 73929 73890 73831 73750 73655 73555 73460 73370 73281
3383.9773 73189 73097 73012 72944 72896 72860 72821 72765 72687 72597 72512
3389.2805 72451 72422 72422 72440 72463 72485 72508 72537 72576 72623 72671
3394.5840 72718 72764 72818 72891 72989 73110 73243 73377 73507 73640 73788
3399.8872 73962 74167 74391 74615 74822 75001 75157 75306 75463 75638 75826
3405.1904 76011 76178 76318 76437 76548 76664 76789 76917 77039 77149 77250
3410.4937 77350 77457 77573 77694 77809 77911 77996 78068 78135 78205 78280
3415.7971 78353 78410 78440 78440 78418 78391 78379 78396 78445 78521 78611
3421.1003 78704 78788 78860 78916 78960 78993 79017 79035 79048 79062 79087
3426.4036 79133 79206 79300 79404 79500 79577 79629 79659 79674 79680 79686
3431.7068 79699 79727 79774 79837 79904 79962 80002 80023 80040 80070 80128
3437.0103 80217 80327 80441 80541 80619 80674 80718 80761 80811 80870 80938
3442.3135 81009 81084 81163 81247 81335 81426 81514 81592 81653 81694 81721
3447.6167 81742 81765 81793 81821 81848 81877 81922 81996 82104 82235 82366
3452.9199 82474 82548 82591 82619 82644 82674 82706 82742 82785 82843 82920
3458.2234 83013 83109 83196 83266 83316 83351 83374 83389 83396 83401 83408
3463.5266 83426 83459 83511 83578 83654 83734 83813 83888 83961 84034 84104
3468.8298 84169 84225 84270 84308 84343 84377 84403 84416 84412 84396 84385
3474.1331 84397 84443 84515 84593 84654 84684 84690 84692 84715 84770 84850
3479.4365 84929 84971 84954 84879 84774 84681 84637 84647 84693 84746 84783
3484.7397 84795 84792 84784 84782 84786 84795 84806 84824 84852 84887 84921
3490.0430 84944 84949 84938 84917 84894 84873 84852 84830 84806 84784 84765
3495.3462 84751 84738 84726 84718 84721 84738 84770 84810 84849 84881 84906
3500.6497 84933 84966 85005 85041 85060 85053 85020 84976 84938 84921 84932
3505.9529 84970 85028 85095 85156 85200 85217 85205 85169 85123 85080 85052
3511.2561 85045 85057 85085 85125 85171 85217 85258 85287 85300 85297 85288
3516.5593 85286 85300 85331 85368 85398 85418 85434 85459 85500 85555 85607
3521.8628 85641 85650 85647 85655 85693 85760 85840 85911 85959 85978 85978
3527.1660 85972 85971 85978 85991 86005 86018 86033 86055 86092 86145 86213
3532.4692 86284 86345 86384 86402 86412 86432 86475 86536 86594 86629 86638
3537.7725 86635 86647 86687 86755 86836 86910 86972 87025 87076 87126 87164
3543.0759 87177 87164 87139 87130 87158 87230 87330 87434 87520 87579 87614
3548.3792 87638 87668 87715 87787 87887 88005 88127 88229 88293 88313 88298
3553.6824 88268 88246 88251 88291 88364 88451 88527 88572 88580 88563 88542
3558.9856 88539 88567 88625 88707 88799 88897 88997 89099 89197 89282 89345
3564.2891 89378 89378 89349 89308 89281 89296 89360 89451 89540 89606 89647
3569.5923 89673 89692 89714 89742 89781 89830 89893 89968 90051 90133 90204
3574.8955 90258 90295 90321 90345 90374 90409 90447 90482 90509 90528 90542
3580.1990 90558 90581 90616 90658 90703 90744 90779 90813 90856 90915 90994
3585.5022 91082 91161 91209 91217 91203 91196 91215 91255 91302 91342 91369
3590.8054 91388 91406 91435 91486 91567 91677 91803 91923 92011 92052 92049
3596.1086 92023 91999 91989 91991 91996 91994 91985 91980 91993 92031 92094
3601.4121 92170 92246 92315 92375 92426 92471 92513 92557 92608 92668 92734
3606.7153 92792 92831 92841 92827 92808 92803 92821 92859 92905 92952 92994
3612.0186 93030 93063 93097 93133 93174 93221 93277 93346 93427 93512 93580
3617.3218 93603 93555 93443 93322 93272 93339 93501 93694 93853 93945 93968
3622.6252 93944 93903 93865 93841 93827 93820 93827 93860 93934 94052 94204
3627.9285 94350 94417 94359 94242 94161 94145 94177 94237 94309 94378 94426
3633.2317 94438 94417 94388 94379 94402 94448 94491 94503 94471 94407 94346
3638.5349 94320 94342 94395 94453 94493 94510 94513 94521 94548 94593 94645
3643.8384 94693 94727 94746 94757 94768 94787 94815 94832 94811 94738 94627
3649.1416 94517 94461 94492 94589 94694 94769 94810 94828 94837 94846 94861
3654.4448 94882 94906 94924 94927 94915 94902 94905 94928 94967 95007 95029
3659.7480 95021 94984 94938 94900 94879 94867 94848 94811 94758 94707 94682
3665.0515 94698 94756 94843 94942 95041 95130 95204 95253 95261 95220 95138
3670.3547 95052 94995 94972 94962 94948 94916 94861 94784 94703 94665 94722
3675.6580 94839 94937 94995 95028 95047 95052 95038 95001 94947 94892 94851
3680.9612 94830 94826 94838 94861 94889 94913 94920 94903 94864 94811 94754
3686.2646 94700 94649 94606 94580 94590 94646 94736 94844 94942 95000 94988
3691.5679 94910 94799 94700 94641 94634 94665 94710 94733 94718 94674 94631
3696.8711 94622 94658 94726 94795 94840 94851 94833 94796 94749 94698 94649
3702.1743 94613 94596 94601 94624 94657 94694 94730 94763 94791 94816 94835
3707.4778 94846 94845 94833 94819 94813 94816 94815 94787 94716 94612 94516
3712.7810 94462 94454 94478 94519 94563 94594 94598 94568 94510 94442 94390
3718.0842 94380 94424 94506 94592 94653 94675 94658 94611 94556 94515 94496
3723.3875 94485 94461 94411 94337 94267 94245 94295 94394 94487 94525 94494
3728.6909 94411 94308 94219 94172 94188 94280 94435 94613 94767 94870 94919
3733.9941 94912 94856 94768 94684 94630 94599 94574 94544 94512 94481 94458
3739.2974 94445 94444 94454 94473 94499 94525 94548 94565 94566 94529 94434
3744.6006 94319 94252 94237 94249 94270 94296 94327 94369 94433 94517 94603
3749.9041 94665 94689 94668 94599 94487 94360 94248 94165 94106 94067 94051
3755.2073 94064 94110 94180 94252 94309 94340 94348 94335 94312 94292 94290
3760.5105 94306 94333 94361 94382 94394 94393 94382 94364 94344 94327 94319
3765.8137 94316 94309 94287 94245 94188 94128 94089 94101 94164 94237 94274
3771.1172 94261 94216 94169 94145 94159 94204 94259 94299 94307 94285 94248
3776.4204 94211 94186 94173 94161 94138 94098 94047 94010 94004 94031 94080
3781.7236 94133 94169 94173 94136 94071 94004 93962 93957 93978 94004 94023
3787.0269 94033 94045 94068 94105 94149 94186 94204 94200 94182 94166 94164
3792.3303 94180 94207 94232 94240 94221 94172 94102 94033 93993 93999 94038
3797.6335 94086 94122 94136 94127 94096 94043 93979 93931 93925 93953 93986
3802.9368 94006 94011 94006 93998 93991 93989 93989 93985 93972 93950 93925
3808.2400 93899 93870 93839 93808 93784 93776 93789 93818 93854 93883 93898
3813.5435 93896 93883 93867 93860 93869 93892 93924 93961 94005 94056 94109
3818.8467 94151 94163 94123 94027 93917 93862 93870 93903 93930 93940 93936
3824.1499 93925 93913 93903 93895 93889 93884 93878 93867 93848 93812 93760
3829.4531 93693 93626 93583 93593 93659 93749 93819 93846 93830 93789 93748
3834.7566 93736 93766 93830 93916 94007 94081 94107 94070 93987 93890 93808
3840.0598 93753 93726 93715 93704 93685 93663 93650 93660 93696 93746 93795
3845.3630 93833 93862 93886 93908 93927 93939 93938 93925 93907 93891 93886
3850.6663 93892 93904 93911 93903 93879 93853 93843 93842 93836 93823 93811
3855.9697 93806 93810 93820 93828 93825 93815 93803 93797 93800 93811 93830
3861.2729 93859 93905 93973 94060 94156 94236 94269 94233 94148 94059 93997
3866.5762 93962 93942 93926 93914 93916 93953 94029 94105 94129 94097 94027
3871.8794 93942 93861 93802 93782 93806 93852 93890 93903 93894 93871 93839
3877.1829 93803 93768 93738 93719 93720 93744 93783 93818 93832 93827 93807
3882.4861 93780 93747 93708 93666 93628 93611 93629 93680 93740 93790 93826
3887.7893 93850 93867 93880 93888 93888 93878 93860 93840 93824 93816 93812
3893.0925 93812 93817 93829 93847 93866 93877 93878 93867 93847 93820 93789
3898.3960 93756 93724 93701 93691 93699 93728 93772 93822 93861 93875 93864
3903.6992 93837 93813 93810 93827 93853 93870 93866 93843 93810 93783 93775
3909.0024 93791 93820 93847 93856 93840 93805 93765 93734 93721 93726 93741
3914.3057 93756 93762 93753 93733 93711 93702 93718 93753 93795 93825 93829
3919.6091 93806 93767 93732 93719 93729 93752 93774 93779 93757 93711 93658
3924.9124 93617 93600 93608 93632 93666 93703 93740 93771 93792 93794 93775
3930.2156 93742 93709 93694 93710 93753 93802 93837 93849 93841 93827 93815
3935.5188 93805 93789 93760 93718 93669 93628 93603 93593 93592 93591 93585
3940.8223 93580 93584 93604 93639 93679 93711 93730 93740 93744 93746 93743
3946.1255 93734 93715 93692 93672 93661 93662 93675 93695 93717 93736 93747
3951.4287 93745 93730 93704 93673 93641 93613 93588 93564 93544 93536 93551
3956.7319 93593 93657 93725 93781 93812 93819 93811 93796 93776 93745 93700
3962.0354 93647 93600 93576 93581 93606 93630 93632 93603 93552 93503 93479
3967.3386 93496 93550 93624 93693 93735 93739 93713 93673 93641 93632 93651
3972.6418 93687 93721 93733 93716 93673 93617 93563 93521 93494 93478 93464
3977.9451 93449 93436 93432 93443 93469 93498 93515 93511 93485 93451 93426
3983.2485 93421 93436 93459 93480 93493 93498 93501 93509 93527 93557 93596
3988.5518 93634 93657 93653 93619 93565 93514 93485 93485 93507 93537 93563
3993.8550 93583 93599 93615 93626 93624 93606 93576 93548 93531 93529 93532
3999.1582 93529 93516 93494
##END= 
