##TITLE= STDNICOTINAMIDE
##JCAMP-DX= 4.24
##DATA TYPE= INFRARED SPECTRUM
##ORIGIN= JASCO
##OWNER= 
##DATE= 22/05/03
##TIME= 15:29:19
##SPECTROMETER/DATA SYSTEM= 
##RESOLUTION= 
##DELTAX=   0.48211674
##XUNITS= 1/CM
##YUNITS= TRANSMITTANCE
##XFACTOR= 1.00000
##YFACTOR= 1E-005
##FIRSTX=   599.7532
##LASTX=  4000.1226
##NPOINTS=     7054
##FIRSTY=      0.38779
##MAXY=      0.96606
##MINY=      0.38779
##XYDATA= (X++(Y..Y))
599.7532 38779 38870 39061 39387 39851 40432 41097 41805 42498 43100 43540
605.0565 43792 43899 43963 44096 44374 44816 45392 46060 46782 47534 48283
610.3598 48984 49585 50050 50374 50584 50713 50789 50831 50848 50847 50822
615.6631 50747 50576 50258 49772 49156 48508 47960 47644 47670 48114 48993
620.9664 50235 51675 53088 54274 55125 55667 56050 56505 57265 58466 60084
626.2697 61942 63791 65410 66691 67660 68440 69173 69940 70727 71450 72032
631.5729 72463 72812 73172 73598 74067 74512 74871 75128 75315 75463 75580
636.8762 75651 75664 75631 75579 75514 75397 75161 74753 74177 73480 72720
642.1795 71914 71044 70115 69221 68569 68412 68910 70026 71528 73111 74540
647.4828 75710 76628 77346 77905 78330 78652 78932 79246 79645 80114 80577
652.7861 80933 81115 81126 81038 80949 80950 81081 81325 81610 81838 81920
658.0894 81821 81575 81271 81000 80809 80683 80576 80463 80364 80336 80434
663.3926 80674 81021 81413 81798 82165 82535 82939 83384 83767 83674 82527
668.6959 80918 79978 79704 79766 79988 80293 80623 80913 81108 81198 81229
673.9992 81270 81368 81516 81662 81743 81722 81595 81371 81052 80634 80121
679.3025 79545 78970 78469 78088 77834 77684 77602 77558 77535 77522 77505
684.6058 77471 77400 77268 77053 76740 76337 75877 75406 74957 74517 74029
689.9091 73424 72670 71799 70887 70004 69164 68308 67332 66152 64758 63226
695.2123 61681 60236 58946 57813 56808 55902 55081 54344 53693 53136 52700
700.5156 52450 52479 52888 53743 55055 56776 58819 61079 63447 65812 68070
705.8189 70135 71952 73498 74775 75794 76576 77153 77580 77924 78250 78583
711.1222 78901 79146 79264 79243 79129 79001 78940 78989 79147 79380 79637
716.4255 79863 80020 80093 80101 80100 80157 80318 80573 80851 81058 81139
721.7288 81109 81027 80946 80889 80846 80801 80756 80735 80760 80822 80882
727.0320 80885 80807 80677 80573 80584 80760 81081 81466 81818 82079 82262
732.3353 82442 82707 83099 83580 84045 84375 84499 84432 84260 84094 84017
737.6386 84054 84188 84385 84636 84973 85449 86102 86922 87841 88756 89593
742.9419 90347 91080 91871 92752 93673 94526 95208 95669 95926 96024 95985
748.2452 95795 95430 94904 94291 93690 93174 92758 92407 92082 91775 91515
753.5485 91312 91123 90847 90386 89728 88989 88362 88000 87899 87870 87638
758.8517 87023 86083 85080 84300 83895 83839 83972 84096 84087 83947 83762
764.1550 83607 83467 83249 82841 82190 81330 80360 79384 78469 77625 76814
769.4583 75988 75115 74205 73309 72489 71794 71240 70808 70456 70140 69830
774.7616 69520 69222 68959 68753 68619 68559 68571 68659 68826 69073 69382
780.0649 69709 69998 70205 70326 70407 70511 70686 70930 71195 71417 71562
785.3682 71648 71731 71869 72083 72358 72653 72939 73211 73482 73760 74030
790.6714 74258 74412 74497 74557 74669 74902 75284 75783 76319 76794 77140
795.9747 77342 77441 77509 77610 77787 78048 78378 78752 79138 79498 79795
801.2780 80009 80146 80247 80367 80549 80801 81095 81390 81654 81876 82066
806.5813 82231 82367 82462 82505 82499 82460 82407 82357 82326 82328 82380
811.8846 82488 82645 82822 82982 83097 83157 83168 83148 83113 83070 83019
817.1879 82958 82885 82796 82689 82564 82428 82290 82158 82023 81863 81638
822.4911 81305 80831 80200 79416 78496 77468 76359 75202 74043 72960 72074
827.7944 71533 71481 72001 73071 74561 76273 78007 79620 81041 82264 83305
833.0977 84177 84879 85400 85745 85937 86022 86053 86076 86117 86180 86248
838.4010 86296 86303 86265 86201 86150 86150 86220 86343 86471 86543 86517
843.7043 86393 86215 86047 85946 85936 86005 86118 86237 86336 86403 86437
849.0076 86441 86424 86401 86392 86407 86443 86477 86484 86447 86374 86292
854.3109 86234 86223 86262 86334 86413 86470 86492 86480 86450 86427 86426
859.6141 86448 86471 86469 86423 86335 86229 86141 86096 86098 86130 86165
864.9174 86178 86158 86113 86061 86023 86010 86024 86053 86083 86102 86109
870.2207 86112 86117 86127 86132 86122 86092 86048 86002 85966 85943 85925
875.5240 85908 85892 85886 85897 85921 85941 85936 85895 85828 85762 85729
880.8273 85749 85818 85907 85980 86002 85966 85890 85815 85779 85803 85875
886.1306 85956 86007 86005 85961 85903 85863 85854 85874 85909 85945 85974
891.4338 85990 85990 85974 85945 85910 85877 85849 85823 85793 85761 85735
896.7371 85723 85729 85745 85759 85761 85747 85730 85725 85748 85802 85877
902.0404 85950 85992 85985 85930 85842 85748 85669 85613 85581 85571 85585
907.3437 85627 85694 85771 85833 85855 85830 85767 85691 85625 85588 85584
912.6470 85610 85651 85687 85700 85672 85604 85508 85408 85327 85281 85271
917.9503 85291 85329 85376 85421 85448 85443 85394 85301 85179 85054 84956
923.2535 84904 84897 84920 84945 84945 84904 84819 84701 84563 84415 84260
928.5568 84096 83921 83736 83539 83325 83082 82794 82453 82056 81612 81130
933.8601 80622 80112 79644 79288 79128 79225 79594 80187 80914 81673 82389
939.1634 83023 83564 84016 84382 84664 84865 84993 85063 85088 85077 85041
944.4667 84991 84941 84907 84900 84917 84948 84978 84996 84998 84985 84962
949.7700 84931 84891 84846 84798 84756 84725 84704 84688 84667 84631 84583
955.0732 84527 84470 84418 84370 84323 84275 84229 84186 84147 84111 84072
960.3765 84023 83958 83874 83772 83656 83529 83394 83244 83064 82840 82565
965.6798 82240 81872 81466 81021 80547 80077 79680 79450 79470 79774 80321
970.9831 81009 81709 82313 82764 83057 83224 83306 83339 83345 83341 83338
976.2864 83346 83370 83409 83451 83482 83485 83451 83381 83287 83191 83114
981.5897 83069 83054 83051 83039 82999 82926 82832 82734 82650 82591 82556
986.8929 82532 82509 82473 82420 82350 82268 82180 82090 82001 81913 81819
992.1962 81707 81559 81358 81101 80808 80523 80302 80196 80228 80389 80641
997.4995 80935 81224 81470 81648 81745 81760 81704 81592 81442 81269 81085
1002.8028 80905 80747 80631 80571 80561 80575 80577 80532 80427 80271 80094
1008.1061 79924 79781 79664 79557 79441 79303 79145 78976 78808 78641 78466
1013.4094 78269 78041 77780 77494 77187 76855 76491 76084 75636 75155 74653
1018.7126 74145 73645 73169 72734 72347 72000 71660 71278 70806 70215 69495
1024.0160 68657 67708 66649 65470 64171 62783 61396 60168 59321 59096 59697
1029.3192 61213 63573 66553 69845 73145 76210 78880 81068 82744 83925 84658
1034.6226 85010 85050 84844 84459 83982 83525 83221 83188 83480 84059 84802
1039.9258 85552 86173 86596 86826 86912 86914 86876 86820 86751 86676 86604
1045.2291 86543 86494 86448 86396 86329 86242 86136 86011 85870 85726 85597
1050.5323 85499 85440 85406 85370 85303 85195 85056 84916 84802 84729 84690
1055.8357 84666 84635 84586 84521 84448 84375 84305 84233 84153 84061 83962
1061.1389 83867 83786 83727 83687 83655 83615 83555 83470 83367 83260 83166
1066.4423 83091 83032 82978 82916 82835 82739 82633 82529 82432 82343 82261
1071.7455 82186 82120 82066 82018 81964 81888 81775 81620 81432 81230 81037
1077.0488 80870 80732 80618 80511 80396 80263 80107 79928 79730 79512 79276
1082.3521 79022 78759 78494 78238 77995 77762 77535 77304 77067 76830 76602
1087.6554 76396 76223 76089 75993 75933 75903 75896 75911 75946 76010 76111
1092.9586 76255 76438 76643 76845 77023 77172 77299 77422 77552 77691 77827
1098.2620 77950 78049 78124 78177 78209 78217 78196 78146 78073 77989 77903
1103.5652 77823 77750 77683 77621 77566 77517 77479 77455 77452 77478 77537
1108.8685 77627 77729 77820 77876 77889 77869 77837 77816 77811 77810 77789
1114.1718 77725 77606 77438 77233 77004 76756 76488 76194 75869 75512 75124
1119.4751 74710 74276 73828 73373 72916 72469 72055 71711 71482 71409 71521
1124.7783 71819 72289 72903 73631 74444 75314 76207 77083 77907 78650 79296
1130.0817 79842 80290 80643 80909 81099 81230 81319 81381 81419 81428 81396
1135.3849 81319 81208 81082 80966 80870 80793 80718 80624 80500 80347 80175
1140.6882 79995 79814 79635 79458 79285 79121 78966 78813 78649 78456 78222
1145.9915 77941 77616 77260 76885 76506 76128 75754 75378 74997 74612 74232
1151.2948 73872 73554 73305 73147 73100 73169 73352 73635 74000 74429 74902
1156.5980 75404 75914 76418 76900 77355 77780 78170 78513 78788 78978 79082
1161.9014 79118 79123 79130 79160 79211 79266 79304 79314 79299 79266 79223
1167.2046 79173 79117 79055 78988 78922 78856 78792 78729 78667 78611 78570
1172.5079 78550 78549 78562 78573 78572 78554 78525 78498 78484 78483 78486
1177.8112 78478 78450 78402 78344 78288 78239 78192 78134 78058 77963 77857
1183.1145 77756 77668 77594 77524 77446 77352 77242 77121 76995 76863 76721
1188.4177 76564 76395 76226 76069 75926 75786 75627 75427 75175 74876 74542
1193.7211 74186 73814 73427 73022 72597 72151 71678 71167 70603 69969 69256
1199.0243 68468 67631 66792 66025 65423 65092 65135 65624 66582 67957 69635
1204.3276 71455 73252 74888 76278 77389 78229 78829 79228 79462 79567 79583
1209.6309 79547 79496 79448 79409 79367 79309 79226 79123 79010 78900 78800
1214.9342 78707 78610 78502 78378 78243 78111 77992 77895 77818 77755 77695
1220.2374 77628 77546 77449 77337 77214 77083 76951 76823 76703 76591 76482
1225.5408 76369 76243 76099 75937 75764 75588 75420 75271 75150 75070 75038
1230.8440 75060 75137 75267 75445 75667 75930 76228 76550 76880 77198 77485
1236.1473 77722 77900 78016 78077 78095 78086 78064 78040 78019 78003 77988
1241.4506 77973 77953 77925 77885 77830 77764 77695 77633 77586 77554 77530
1246.7539 77507 77478 77447 77424 77420 77443 77491 77557 77633 77712 77798
1252.0571 77897 78015 78152 78305 78466 78627 78785 78943 79109 79291 79495
1257.3605 79719 79954 80188 80406 80596 80756 80880 80968 81012 81009 80955
1262.6637 80849 80694 80502 80295 80114 80010 80025 80162 80369 80531 80519
1267.9670 80267 79822 79326 78937 78761 78829 79100 79490 79900 80254 80521
1273.2703 80705 80825 80899 80929 80918 80863 80768 80634 80464 80261 80029
1278.5736 79775 79510 79243 78982 78735 78503 78285 78078 77884 77707 77555
1283.8768 77434 77342 77270 77202 77124 77030 76928 76833 76762 76725 76718
1289.1802 76731 76749 76767 76784 76805 76832 76862 76886 76896 76884 76852
1294.4834 76807 76759 76716 76680 76649 76620 76588 76555 76524 76502 76490
1299.7867 76484 76479 76464 76436 76394 76341 76281 76216 76146 76072 75996
1305.0900 75925 75866 75822 75792 75769 75742 75704 75651 75586 75518 75455
1310.3933 75409 75386 75389 75417 75461 75512 75558 75593 75613 75618 75607
1315.6965 75580 75535 75474 75400 75321 75243 75172 75110 75056 75005 74952
1320.9999 74893 74827 74756 74685 74614 74537 74447 74337 74206 74063 73921
1326.3031 73788 73664 73537 73392 73221 73022 72801 72568 72328 72080 71818
1331.6064 71537 71232 70901 70546 70168 69762 69321 68835 68295 67709 67097
1336.9097 66486 65902 65363 64897 64565 64465 64701 65311 66238 67373 68617
1342.2130 69895 71142 72297 73295 74093 74676 75060 75279 75367 75356 75272
1347.5162 75135 74963 74767 74556 74338 74119 73908 73715 73549 73412 73302
1352.8196 73208 73121 73034 72945 72859 72780 72709 72646 72590 72539 72492
1358.1228 72445 72394 72330 72249 72147 72024 71875 71700 71496 71274 71054
1363.4261 70856 70685 70531 70377 70212 70032 69840 69639 69432 69223 69018
1368.7294 68825 68650 68489 68333 68166 67979 67762 67514 67233 66926 66611
1374.0327 66310 66040 65793 65544 65267 64952 64597 64211 63804 63383 62953
1379.3359 62516 62074 61631 61192 60757 60324 59886 59435 58962 58464 57948
1384.6393 57425 56908 56404 55913 55435 54979 54558 54180 53839 53518 53210
1389.9425 52918 52660 52454 52313 52240 52234 52306 52495 52868 53492 54350
1395.2458 55306 56201 56966 57620 58230 58875 59630 60515 61455 62323 63053
1400.5491 63669 64230 64784 65344 65906 66468 67055 67719 68506 69404 70329
1405.8524 71191 71961 72667 73351 74036 74714 75353 75922 76403 76798 77120
1411.1556 77379 77582 77724 77794 77779 77670 77466 77169 76775 76282 75699
1416.4590 75052 74377 73690 72955 72091 71052 69973 69115 68588 68322 68225
1421.7622 68265 68490 69016 69971 71372 73046 74759 76388 77934 79422 80846
1427.0656 82150 83276 84194 84925 85515 86008 86417 86736 86967 87134 87263
1432.3688 87380 87495 87610 87719 87814 87888 87921 87886 87766 87619 87550
1437.6721 87593 87711 87858 88006 88137 88241 88314 88364 88402 88440 88481
1442.9753 88527 88574 88620 88662 88694 88706 88688 88628 88522 88381 88242
1448.2787 88147 88109 88107 88112 88106 88084 88057 88040 88046 88074 88116
1453.5819 88160 88200 88232 88244 88208 88075 87804 87441 87152 87058 87130
1458.8853 87276 87430 87564 87671 87753 87817 87867 87906 87929 87921 87862
1464.1885 87737 87572 87439 87394 87431 87508 87587 87644 87669 87671 87666
1469.4918 87672 87693 87719 87717 87631 87398 87037 86709 86545 86518 86544
1474.7950 86558 86525 86438 86323 86223 86157 86110 86051 85954 85804 85590
1480.0984 85309 84968 84579 84162 83736 83318 82920 82554 82233 81974 81794
1485.4016 81722 81805 82093 82590 83218 83846 84384 84825 85225 85654 86120
1490.7050 86556 86902 87155 87342 87485 87597 87679 87727 87729 87670 87537
1496.0082 87350 87165 87029 86943 86886 86838 86797 86766 86747 86729 86704
1501.3115 86669 86631 86605 86603 86625 86664 86706 86733 86698 86500 86001
1506.6147 85309 84841 84714 84768 84882 85000 85100 85172 85212 85223 85212
1511.9181 85189 85164 85143 85125 85101 85064 85006 84922 84811 84693 84616
1517.2213 84617 84679 84755 84817 84848 84833 84741 84535 84245 84026 83975
1522.5247 84022 84080 84111 84101 84046 83957 83859 83780 83732 83699 83664
1527.8279 83617 83563 83516 83482 83456 83428 83386 83317 83213 83063 82868
1533.1312 82663 82514 82457 82465 82488 82495 82477 82435 82373 82286 82153
1538.4344 81924 81542 81069 80748 80685 80766 80889 81006 81097 81149 81158
1543.7378 81135 81092 81049 81018 80994 80965 80918 80850 80761 80655 80535
1549.0410 80403 80268 80137 80020 79916 79819 79721 79613 79482 79317 79121
1554.3444 78926 78769 78650 78543 78425 78276 78072 77782 77376 76961 76813
1559.6476 76845 76861 76830 76763 76664 76531 76361 76158 75932 75707 75514
1564.9509 75362 75232 75091 74917 74709 74472 74208 73908 73551 73133 72694
1570.2542 72280 71884 71462 70978 70416 69791 69143 68517 67951 67502 67335
1575.5575 67803 69197 71106 72762 73941 74807 75510 76092 76520 76742 76737
1580.8607 76536 76197 75774 75304 74808 74300 73795 73298 72809 72314 71797
1586.1641 71243 70638 69974 69247 68452 67585 66643 65631 64567 63498 62500
1591.4674 61676 61136 60980 61281 62060 63265 64757 66338 67818 69069 70046
1596.7706 70759 71243 71539 71685 71716 71663 71548 71385 71183 70952 70702
1602.0740 70449 70204 69972 69749 69525 69289 69035 68762 68474 68181 67893
1607.3772 67617 67357 67116 66897 66699 66518 66345 66172 65998 65830 65680
1612.6805 65557 65458 65370 65276 65173 65081 65070 65262 65724 66294 66737
1617.9838 67021 67233 67455 67730 68059 68413 68759 69095 69465 69968 70707
1623.2871 71661 72616 73360 73873 74244 74567 74910 75323 75829 76396 76937
1628.5903 77378 77702 77945 78148 78344 78546 78746 78920 79049 79126 79158
1633.8937 79159 79147 79151 79195 79270 79344 79404 79454 79494 79517 79512
1639.1969 79478 79417 79342 79260 79180 79098 79010 78910 78796 78663 78507
1644.5002 78321 78097 77842 77591 77413 77344 77326 77273 77144 76948 76706
1649.8035 76436 76139 75806 75418 74941 74342 73720 73513 73708 73793 73694
1655.1068 73489 73222 72912 72566 72194 71810 71426 71045 70661 70267 69861
1660.4100 69449 69041 68645 68269 67918 67595 67289 66979 66645 66270 65850
1665.7134 65393 64918 64450 64003 63586 63207 62884 62632 62438 62263 62076
1671.0166 61873 61656 61429 61192 60946 60712 60538 60531 60818 61381 61964
1676.3199 62369 62614 62794 62986 63244 63613 64122 64754 65425 66019 66460
1681.6232 66733 66861 66903 67020 67677 69437 71524 72720 73205 73436 73625
1686.9265 73852 74147 74522 74963 75435 75889 76290 76626 76901 77120 77286
1692.2297 77397 77452 77452 77401 77300 77166 77057 77115 77443 77915 78357
1697.5331 78716 79004 79260 79618 80511 82667 85568 87544 88548 89191 89787
1702.8363 90441 91162 91896 92554 93060 93413 93691 93975 94292 94614 94906
1708.1396 95156 95364 95537 95677 95792 95892 95995 96108 96230 96346 96434
1713.4429 96472 96447 96378 96312 96287 96300 96309 96255 96093 95877 95765
1718.7462 95828 95992 96178 96343 96473 96561 96605 96606 96569 96511 96452
1724.0494 96411 96396 96399 96407 96408 96400 96385 96370 96350 96316 96253
1729.3528 96158 96055 95985 95975 96015 96074 96113 96073 95877 95505 95166
1734.6560 95086 95201 95373 95537 95676 95783 95852 95871 95825 95715 95578
1739.9594 95481 95463 95500 95553 95590 95596 95567 95518 95473 95448 95445
1745.2626 95458 95480 95503 95517 95512 95483 95440 95396 95362 95331 95296
1750.5659 95253 95221 95226 95277 95358 95445 95519 95568 95585 95568 95520
1755.8691 95447 95368 95304 95268 95254 95247 95232 95204 95160 95097 95014
1761.1725 94917 94827 94769 94750 94754 94758 94750 94728 94698 94670 94651
1766.4757 94637 94620 94595 94566 94548 94551 94569 94588 94591 94568 94518
1771.7791 94467 94458 94501 94567 94625 94666 94691 94707 94721 94737 94756
1777.0823 94770 94776 94766 94738 94691 94627 94554 94487 94444 94433 94452
1782.3856 94491 94535 94572 94590 94582 94553 94516 94486 94469 94463 94462
1787.6888 94460 94451 94430 94396 94345 94276 94189 94089 93990 93919 93898
1792.9922 93921 93962 93993 94000 93975 93920 93849 93786 93744 93728 93729
1798.2954 93737 93749 93767 93794 93832 93870 93897 93906 93895 93875 93860
1803.5988 93861 93881 93913 93945 93969 93979 93982 93989 94010 94044 94081
1808.9020 94104 94098 94059 93996 93930 93886 93877 93901 93946 93995 94036
1814.2053 94055 94047 94012 93958 93898 93846 93811 93800 93809 93830 93855
1819.5085 93875 93891 93906 93925 93949 93970 93975 93949 93885 93790 93691
1824.8119 93630 93643 93723 93825 93907 93943 93923 93840 93696 93520 93373
1830.1151 93317 93354 93441 93536 93619 93686 93740 93789 93832 93865 93876
1835.4185 93854 93799 93721 93645 93596 93587 93610 93647 93673 93671 93637
1840.7217 93576 93503 93428 93360 93298 93246 93214 93216 93250 93290 93308
1846.0250 93295 93252 93196 93151 93139 93162 93203 93236 93245 93233 93219
1851.3282 93226 93271 93348 93436 93500 93514 93471 93388 93296 93225 93185
1856.6316 93167 93150 93119 93076 93035 93011 93006 93013 93020 93024 93028
1861.9348 93037 93047 93045 93022 92980 92940 92930 92968 93051 93154 93234
1867.2382 93255 93196 93068 92912 92782 92703 92667 92646 92627 92607 92597
1872.5414 92608 92637 92668 92679 92658 92613 92564 92532 92528 92545 92573
1877.8447 92600 92623 92641 92654 92659 92660 92665 92691 92751 92844 92947
1883.1479 93026 93044 92981 92850 92690 92549 92462 92433 92439 92449 92439
1888.4513 92403 92359 92334 92340 92366 92388 92393 92387 92386 92404 92445
1893.7545 92494 92525 92513 92452 92365 92288 92254 92274 92331 92385 92389
1899.0579 92308 92140 91919 91700 91536 91462 91480 91567 91686 91801 91882
1904.3611 91915 91896 91832 91737 91633 91548 91514 91551 91662 91816 91965
1909.6644 92064 92099 92093 92086 92099 92125 92135 92109 92050 91988 91953
1914.9677 91949 91952 91928 91859 91756 91657 91608 91620 91664 91706 91729
1920.2710 91740 91748 91759 91772 91781 91779 91767 91745 91717 91689 91665
1925.5742 91653 91651 91645 91609 91522 91384 91226 91101 91061 91129 91279
1930.8776 91444 91541 91516 91374 91177 91015 90960 91030 91182 91344 91456
1936.1808 91497 91484 91455 91441 91459 91518 91626 91787 91991 92213 92406
1941.4841 92513 92489 92330 92086 91830 91608 91428 91280 91149 91030 90934
1946.7874 90886 90917 91051 91285 91580 91869 92074 92140 92051 91830 91526
1952.0907 91203 90925 90738 90647 90612 90564 90454 90296 90163 90141 90259
1957.3939 90465 90653 90739 90730 90722 90822 91054 91318 91455 91354 91038
1962.6973 90652 90368 90281 90376 90557 90743 90922 91151 91487 91898 92229
1968.0005 92277 91930 91253 90470 89879 89724 90087 90847 91734 92458 92835
1973.3038 92851 92630 92350 92153 92100 92167 92271 92308 92186 91871 91412
1978.6071 90933 90574 90427 90504 90743 91049 91337 91548 91654 91645 91527
1983.9104 91323 91075 90837 90650 90525 90445 90379 90310 90246 90211 90219
1989.2136 90269 90352 90469 90631 90849 91101 91326 91461 91484 91424 91330
1994.5170 91228 91112 90961 90770 90569 90415 90351 90373 90437 90489 90514
1999.8202 90544 90635 90814 91061 91315 91516 91632 91660 91608 91482 91292
2005.1235 91079 90922 90895 91011 91181 91247 91086 90699 90235 89915 89912
2010.4268 90272 90893 91583 92140 92428 92417 92177 91853 91597 91515 91617
2015.7301 91808 91931 91862 91600 91291 91126 91196 91406 91522 91320 90755
2021.0333 90025 89471 89379 89802 90524 91172 91446 91296 90925 90634 90631
2026.3367 90939 91434 91946 92351 92591 92629 92414 91902 91123 90215 89394
2031.6399 88850 88657 88755 89009 89310 89628 90006 90489 91054 91603 91999
2036.9432 92145 92031 91740 91400 91122 90959 90904 90908 90919 90907 90876
2042.2465 90844 90831 90837 90854 90879 90919 90996 91129 91317 91529 91719
2047.5498 91842 91880 91848 91783 91715 91644 91544 91390 91190 90994 90882
2052.8530 90917 91106 91379 91619 91722 91660 91497 91343 91288 91351 91476
2058.1563 91578 91595 91524 91421 91367 91412 91552 91723 91838 91825 91667
2063.4597 91402 91111 90879 90756 90738 90777 90810 90793 90709 90573 90416
2068.7629 90282 90222 90275 90458 90749 91089 91401 91616 91699 91656 91514
2074.0662 91311 91087 90882 90743 90707 90783 90929 91067 91115 91036 90859
2079.3694 90662 90520 90464 90470 90494 90509 90522 90566 90657 90778 90878
2084.6729 90911 90866 90782 90728 90758 90880 91050 91198 91259 91213 91084
2089.9761 90931 90814 90769 90801 90893 91016 91140 91234 91270 91229 91114
2095.2793 90965 90842 90804 90864 90980 91076 91084 90991 90843 90718 90679
2100.5825 90741 90870 91017 91145 91240 91301 91325 91291 91180 90990 90749
2105.8860 90509 90317 90197 90143 90135 90157 90206 90288 90407 90549 90691
2111.1892 90810 90887 90919 90908 90862 90795 90733 90705 90726 90788 90852
2116.4924 90874 90830 90734 90636 90590 90625 90729 90866 90994 91090 91143
2121.7957 91142 91069 90911 90682 90435 90250 90191 90267 90421 90558 90598
2127.0991 90520 90373 90243 90213 90320 90547 90839 91120 91320 91395 91342
2132.4023 91205 91053 90950 90913 90906 90860 90735 90553 90394 90339 90406
2137.7056 90534 90619 90584 90425 90213 90044 89983 90038 90170 90328 90468
2143.0088 90567 90615 90609 90559 90474 90367 90245 90118 90008 89955 89995
2148.3123 90128 90301 90417 90384 90165 89800 89378 88979 88625 88279 87886
2153.6155 87439 87010 86737 86765 87162 87863 88657 89268 89480 89261 88806
2158.9187 88440 88436 88853 89531 90217 90716 90941 90886 90571 90023 89310
2164.2219 88561 87949 87620 87630 87927 88396 88926 89453 89946 90351 90579
2169.5254 90538 90221 89748 89332 89157 89276 89577 89848 89917 89757 89499
2174.8286 89338 89409 89693 90031 90221 90143 89836 89467 89236 89260 89508
2180.1318 89816 89970 89840 89455 88993 88679 88668 88971 89470 89992 90387
2185.4351 90566 90496 90188 89698 89138 88656 88387 88391 88619 88944 89222
2190.7385 89363 89366 89284 89175 89073 88984 88921 88906 88961 89076 89200
2196.0417 89263 89225 89106 88977 88916 88962 89104 89287 89458 89580 89646
2201.3450 89663 89641 89590 89519 89442 89365 89289 89213 89143 89104 89135
2206.6482 89265 89499 89798 90097 90322 90420 90377 90217 89991 89754 89555
2211.9517 89428 89388 89428 89523 89637 89742 89826 89902 89991 90108 90235
2217.2549 90320 90297 90135 89872 89613 89489 89582 89880 90272 90603 90749
2222.5581 90674 90442 90162 89933 89799 89750 89739 89721 89672 89594 89508
2227.8613 89444 89426 89464 89552 89666 89771 89828 89810 89707 89535 89339
2233.1648 89182 89131 89227 89473 89820 90186 90476 90618 90583 90392 90098
2238.4680 89775 89495 89306 89226 89240 89309 89388 89451 89494 89536 89595
2243.7712 89682 89790 89904 90009 90096 90158 90191 90193 90167 90127 90086
2249.0745 90055 90028 89992 89933 89857 89786 89746 89743 89752 89724 89615
2254.3779 89422 89186 88981 88866 88861 88935 89035 89119 89177 89233 89317
2259.6812 89437 89574 89688 89748 89755 89734 89721 89733 89749 89729 89639
2264.9844 89484 89318 89216 89229 89353 89527 89668 89718 89677 89593 89523
2270.2876 89492 89482 89454 89389 89307 89253 89267 89354 89476 89581 89632
2275.5911 89632 89610 89602 89624 89668 89707 89718 89694 89645 89592 89559
2280.8943 89558 89588 89636 89685 89717 89724 89707 89680 89660 89662 89693
2286.1975 89741 89785 89798 89768 89704 89632 89589 89597 89656 89744 89831
2291.5007 89892 89914 89895 89841 89758 89658 89563 89497 89476 89504 89563
2296.8042 89630 89686 89724 89748 89760 89755 89723 89660 89579 89503 89458
2302.1074 89453 89479 89514 89534 89525 89491 89443 89398 89368 89360 89370
2307.4106 89390 89407 89412 89402 89379 89346 89302 89244 89169 89083 88999
2312.7139 88937 88912 88932 88990 89076 89172 89258 89315 89326 89290 89224
2318.0173 89158 89122 89128 89161 89189 89178 89106 88980 88822 88666 88548
2323.3206 88488 88489 88526 88560 88557 88509 88434 88374 88368 88430 88536
2328.6238 88640 88695 88683 88619 88537 88474 88450 88461 88489 88506 88487
2333.9270 88423 88321 88207 88112 88065 88079 88141 88226 88315 88400 88480
2339.2305 88556 88616 88645 88638 88604 88565 88546 88553 88579 88603 88606
2344.5337 88589 88571 88585 88654 88774 88914 89036 89114 89136 89101 89008
2349.8369 88861 88669 88453 88243 88075 87970 87936 87969 88059 88190 88338
2355.1401 88463 88509 88411 88134 87705 87227 86848 86687 86781 87051 87347
2360.4436 87525 87518 87342 87051 86701 86333 85990 85738 85646 85749 86024
2365.7468 86388 86742 87021 87223 87390 87568 87766 87958 88106 88188 88219
2371.0500 88237 88279 88362 88474 88591 88686 88743 88765 88767 88771 88795
2376.3533 88845 88913 88981 89036 89073 89106 89148 89208 89278 89337 89368
2381.6567 89366 89347 89338 89365 89432 89526 89618 89680 89697 89671 89620
2386.9600 89566 89526 89510 89515 89531 89546 89549 89538 89519 89503 89498
2392.2632 89503 89510 89508 89491 89463 89440 89437 89460 89503 89549 89579
2397.5664 89584 89567 89539 89514 89502 89503 89512 89524 89536 89546 89554
2402.8699 89559 89559 89555 89548 89544 89548 89564 89588 89612 89623 89616
2408.1731 89590 89554 89520 89497 89485 89481 89478 89476 89479 89494 89523
2413.4763 89561 89600 89632 89653 89662 89660 89647 89622 89591 89560 89536
2418.7795 89520 89510 89502 89495 89493 89499 89512 89527 89539 89550 89569
2424.0830 89608 89663 89719 89748 89733 89674 89594 89523 89480 89467 89468
2429.3862 89467 89457 89443 89436 89443 89462 89485 89505 89522 89535 89548
2434.6895 89558 89558 89542 89510 89467 89424 89387 89359 89335 89308 89278
2439.9927 89255 89253 89282 89340 89410 89467 89492 89475 89424 89356 89290
2445.2961 89241 89218 89221 89245 89278 89304 89308 89284 89236 89183 89145
2450.5994 89138 89164 89215 89276 89332 89375 89401 89407 89391 89355 89309
2455.9026 89262 89221 89189 89159 89128 89100 89085 89090 89114 89148 89180
2461.2058 89206 89234 89272 89321 89368 89393 89381 89338 89283 89238 89217
2466.5093 89214 89219 89217 89202 89180 89159 89149 89160 89195 89250 89315
2471.8125 89374 89411 89418 89400 89369 89341 89326 89327 89340 89356 89366
2477.1157 89362 89337 89293 89239 89190 89165 89172 89212 89272 89334 89383
2482.4189 89406 89402 89371 89321 89261 89207 89170 89158 89173 89205 89243
2487.7224 89277 89299 89313 89324 89336 89349 89356 89345 89313 89263 89208
2493.0256 89165 89139 89131 89133 89139 89150 89166 89186 89200 89196 89169
2498.3289 89131 89105 89111 89151 89209 89256 89272 89248 89198 89139 89090
2503.6321 89058 89041 89033 89023 89001 88962 88911 88863 88839 88852 88906
2508.9355 88985 89065 89118 89129 89094 89027 88949 88884 88845 88833 88838
2514.2388 88843 88841 88832 88830 88845 88878 88917 88946 88957 88953 88944
2519.5420 88942 88949 88963 88977 88992 89008 89024 89036 89040 89031 89016
2524.8452 89001 88990 88977 88957 88927 88898 88888 88916 88986 89085 89183
2530.1487 89251 89268 89229 89151 89062 88989 88955 88964 89000 89042 89068
2535.4519 89069 89054 89040 89042 89062 89092 89114 89115 89091 89052 89020
2540.7551 89014 89049 89123 89219 89307 89359 89359 89309 89231 89150 89083
2546.0583 89034 88994 88957 88927 88918 88948 89023 89128 89233 89309 89339
2551.3618 89325 89279 89216 89149 89089 89046 89034 89059 89115 89182 89233
2556.6650 89252 89241 89213 89181 89149 89109 89055 88993 88943 88930 88965
2561.9683 89039 89121 89177 89186 89152 89098 89051 89034 89050 89084 89117
2567.2715 89131 89121 89094 89061 89034 89015 89001 88992 88989 89001 89033
2572.5750 89085 89148 89209 89251 89266 89255 89227 89196 89178 89181 89201
2577.8782 89223 89226 89195 89129 89045 88969 88921 88908 88923 88955 88993
2583.1814 89030 89064 89091 89106 89107 89098 89089 89089 89097 89104 89100
2588.4849 89081 89056 89039 89038 89053 89070 89076 89064 89036 89004 88978
2593.7881 88964 88966 88984 89012 89043 89063 89060 89028 88975 88916 88873
2599.0913 88861 88882 88926 88973 89003 89003 88971 88922 88876 88853 88861
2604.3945 88891 88926 88949 88951 88935 88912 88892 88878 88871 88865 88859
2609.6980 88851 88840 88827 88815 88808 88812 88829 88852 88871 88878 88870
2615.0012 88856 88848 88859 88890 88930 88963 88974 88961 88936 88915 88914
2620.3044 88934 88960 88970 88945 88883 88798 88717 88667 88661 88695 88752
2625.6077 88812 88860 88892 88911 88921 88924 88916 88897 88870 88844 88834
2630.9111 88844 88871 88899 88916 88911 88891 88867 88851 88849 88857 88868
2636.2144 88876 88880 88883 88885 88884 88875 88856 88836 88825 88837 88872
2641.5176 88920 88963 88981 88967 88926 88877 88840 88825 88832 88850 88866
2646.8208 88873 88868 88859 88852 88851 88856 88860 88857 88842 88814 88776
2652.1243 88733 88696 88670 88660 88668 88687 88709 88724 88724 88710 88689
2657.4275 88676 88679 88703 88739 88775 88799 88805 88794 88769 88737 88705
2662.7307 88676 88656 88645 88644 88651 88663 88673 88678 88674 88662 88646
2668.0339 88632 88626 88630 88637 88640 88631 88611 88588 88571 88565 88567
2673.3374 88573 88575 88574 88570 88565 88558 88544 88519 88487 88453 88426
2678.6406 88409 88401 88396 88390 88386 88389 88401 88421 88441 88451 88445
2683.9438 88425 88401 88384 88382 88395 88413 88426 88426 88410 88381 88348
2689.2471 88315 88289 88273 88268 88271 88277 88279 88274 88264 88253 88250
2694.5505 88259 88276 88292 88296 88280 88245 88201 88164 88146 88150 88169
2699.8538 88189 88196 88183 88151 88112 88078 88057 88049 88049 88051 88051
2705.1570 88048 88044 88042 88041 88037 88023 87995 87951 87898 87844 87804
2710.4602 87784 87786 87803 87823 87836 87837 87827 87808 87783 87756 87729
2715.7637 87705 87683 87662 87639 87614 87590 87574 87571 87580 87596 87607
2721.0669 87605 87590 87565 87538 87514 87496 87481 87468 87454 87439 87424
2726.3701 87408 87392 87378 87369 87367 87377 87396 87422 87449 87470 87480
2731.6733 87476 87463 87448 87436 87433 87435 87439 87442 87442 87444 87452
2736.9768 87467 87486 87502 87509 87503 87486 87463 87439 87418 87402 87389
2742.2800 87377 87368 87363 87365 87376 87392 87406 87408 87390 87352 87298
2747.5833 87239 87186 87147 87126 87119 87124 87133 87144 87151 87155 87154
2752.8865 87149 87139 87121 87092 87051 86999 86943 86889 86842 86806 86780
2758.1899 86767 86769 86783 86804 86820 86818 86786 86726 86647 86566 86501
2763.4932 86461 86449 86457 86476 86498 86513 86521 86521 86519 86517 86521
2768.7964 86527 86532 86531 86523 86511 86501 86495 86494 86491 86476 86444
2774.0996 86396 86340 86290 86255 86242 86248 86265 86282 86290 86283 86265
2779.4031 86240 86215 86196 86181 86169 86159 86149 86144 86147 86156 86170
2784.7063 86184 86193 86193 86185 86170 86156 86152 86167 86205 86261 86325
2790.0095 86386 86438 86485 86534 86591 86656 86721 86779 86826 86869 86915
2795.3127 86969 87026 87081 87129 87169 87206 87242 87278 87309 87331 87340
2800.6162 87342 87347 87366 87407 87469 87539 87600 87636 87640 87614 87575
2805.9194 87541 87528 87541 87575 87616 87651 87667 87660 87627 87574 87509
2811.2227 87443 87393 87371 87382 87424 87485 87549 87603 87641 87661 87664
2816.5259 87651 87624 87582 87531 87480 87436 87407 87392 87390 87398 87412
2821.8293 87430 87450 87470 87487 87499 87505 87506 87501 87492 87480 87472
2827.1326 87475 87496 87535 87582 87625 87653 87663 87657 87645 87630 87614
2832.4358 87594 87566 87537 87517 87514 87535 87573 87616 87650 87666 87665
2837.7390 87654 87643 87640 87644 87650 87653 87650 87643 87642 87653 87677
2843.0425 87712 87746 87773 87785 87784 87774 87760 87747 87732 87713 87687
2848.3457 87656 87626 87603 87596 87606 87629 87658 87682 87695 87697 87690
2853.6489 87679 87672 87672 87680 87695 87710 87718 87712 87690 87656 87620
2858.9521 87596 87592 87615 87662 87722 87780 87818 87820 87781 87707 87619
2864.2556 87541 87492 87478 87492 87514 87530 87530 87518 87502 87489 87480
2869.5588 87471 87458 87440 87419 87401 87388 87377 87366 87353 87337 87323
2874.8621 87314 87312 87319 87333 87352 87367 87371 87352 87309 87245 87175
2880.1653 87117 87086 87085 87108 87140 87166 87174 87165 87145 87128 87121
2885.4688 87126 87138 87147 87145 87130 87104 87075 87048 87027 87013 87006
2890.7720 87007 87016 87029 87040 87042 87028 87000 86963 86927 86900 86889
2896.0752 86895 86913 86937 86962 86982 86991 86990 86981 86966 86951 86937
2901.3784 86924 86912 86902 86897 86900 86912 86932 86957 86979 86992 86990
2906.6819 86973 86947 86916 86887 86865 86851 86847 86851 86862 86872 86875
2911.9851 86862 86830 86783 86734 86694 86675 86677 86695 86716 86731 86734
2917.2883 86723 86701 86674 86643 86612 86582 86556 86535 86521 86514 86515
2922.5916 86525 86544 86570 86594 86609 86606 86583 86546 86504 86466 86435
2927.8950 86407 86377 86345 86315 86292 86283 86286 86299 86317 86334 86344
2933.1982 86341 86322 86290 86254 86226 86218 86233 86262 86291 86305 86300
2938.5015 86279 86251 86223 86199 86176 86153 86132 86116 86107 86102 86095
2943.8047 86082 86063 86042 86026 86015 86007 85994 85971 85939 85903 85870
2949.1082 85844 85830 85827 85831 85838 85840 85829 85802 85762 85717 85678
2954.4114 85653 85646 85656 85677 85703 85724 85736 85733 85716 85689 85656
2959.7146 85621 85586 85551 85519 85490 85467 85452 85443 85437 85429 85417
2965.0178 85399 85375 85345 85311 85277 85254 85250 85270 85307 85345 85367
2970.3213 85362 85329 85280 85227 85180 85140 85103 85065 85031 85007 84998
2975.6245 85002 85009 85002 84973 84921 84857 84799 84763 84755 84772 84801
2980.9277 84829 84843 84835 84803 84751 84691 84638 84603 84594 84605 84624
2986.2310 84640 84648 84654 84666 84689 84715 84731 84722 84682 84621 84558
2991.5344 84513 84496 84503 84519 84524 84501 84443 84355 84254 84160 84091
2996.8376 84055 84050 84064 84085 84098 84097 84083 84061 84042 84031 84026
3002.1409 84016 83991 83943 83877 83812 83767 83755 83771 83796 83809 83799
3007.4441 83765 83717 83665 83614 83564 83511 83455 83401 83354 83317 83288
3012.7476 83262 83231 83190 83140 83086 83040 83010 83002 83011 83026 83035
3018.0508 83029 83009 82986 82970 82969 82980 82994 82996 82974 82924 82848
3023.3540 82756 82664 82584 82528 82500 82496 82506 82517 82520 82510 82490
3028.6572 82466 82442 82421 82400 82377 82351 82319 82281 82236 82188 82142
3033.9607 82104 82081 82071 82067 82060 82048 82034 82028 82037 82060 82085
3039.2639 82096 82082 82042 81990 81944 81916 81905 81899 81877 81825 81742
3044.5671 81644 81553 81485 81444 81420 81396 81358 81306 81246 81191 81150
3049.8704 81124 81109 81096 81077 81042 80990 80923 80851 80785 80734 80695
3055.1738 80663 80625 80577 80524 80472 80431 80402 80383 80366 80349 80335
3060.4771 80331 80347 80386 80448 80525 80607 80680 80734 80763 80771 80764
3065.7803 80754 80747 80746 80749 80750 80748 80745 80746 80756 80776 80799
3071.0835 80814 80811 80783 80736 80684 80646 80635 80659 80710 80773 80830
3076.3870 80868 80882 80874 80854 80827 80797 80763 80722 80676 80631 80595
3081.6902 80576 80571 80569 80554 80514 80447 80367 80291 80236 80205 80189
3086.9934 80175 80151 80118 80080 80050 80031 80022 80015 79997 79958 79897
3092.2966 79821 79744 79683 79651 79651 79675 79707 79733 79743 79733 79709
3097.6001 79677 79642 79608 79577 79553 79537 79530 79527 79521 79501 79459
3102.9033 79394 79313 79225 79144 79077 79029 78997 78973 78944 78896 78823
3108.2065 78728 78629 78547 78502 78499 78524 78553 78562 78545 78509 78474
3113.5098 78454 78445 78429 78383 78297 78178 78048 77933 77845 77787 77750
3118.8132 77720 77690 77652 77602 77537 77464 77393 77340 77309 77289 77258
3124.1165 77195 77095 76976 76868 76798 76767 76757 76735 76679 76584 76469
3129.4197 76357 76272 76221 76198 76186 76170 76137 76085 76016 75935 75848
3134.7229 75760 75675 75598 75537 75496 75473 75462 75451 75427 75383 75321
3140.0264 75247 75172 75098 75029 74963 74903 74854 74824 74819 74834 74856
3145.3296 74871 74871 74858 74842 74832 74833 74839 74842 74834 74817 74802
3150.6328 74803 74830 74888 74971 75063 75147 75205 75231 75225 75202 75179
3155.9360 75173 75195 75248 75328 75422 75518 75600 75660 75698 75724 75751
3161.2395 75788 75837 75894 75953 76008 76060 76112 76166 76218 76266 76306
3166.5427 76343 76386 76446 76530 76635 76754 76870 76971 77048 77099 77129
3171.8459 77147 77163 77184 77216 77263 77327 77407 77500 77600 77705 77812
3177.1492 77919 78024 78115 78182 78219 78233 78241 78269 78337 78448 78586
3182.4526 78727 78851 78952 79037 79121 79212 79309 79400 79476 79530 79566
3187.7559 79594 79624 79667 79727 79804 79890 79977 80058 80130 80197 80258
3193.0591 80314 80359 80391 80410 80427 80455 80504 80576 80665 80759 80848
3198.3623 80932 81011 81086 81153 81201 81224 81226 81225 81244 81304 81403
3203.6658 81523 81628 81689 81692 81646 81576 81509 81464 81447 81454 81476
3208.9690 81506 81539 81575 81614 81656 81700 81745 81792 81844 81899 81956
3214.2722 82007 82044 82061 82058 82042 82025 82016 82022 82043 82072 82101
3219.5754 82119 82122 82112 82098 82092 82103 82134 82179 82227 82264 82283
3224.8789 82283 82267 82244 82220 82207 82214 82249 82314 82402 82497 82581
3230.1821 82640 82672 82680 82672 82654 82625 82586 82545 82513 82508 82541
3235.4854 82608 82692 82769 82821 82844 82849 82854 82869 82893 82919 82936
3240.7886 82939 82937 82940 82962 83010 83083 83167 83243 83285 83280 83228
3246.0920 83148 83070 83018 83004 83027 83071 83124 83179 83239 83305 83376
3251.3953 83440 83487 83511 83518 83520 83531 83553 83579 83594 83585 83548
3256.6985 83491 83433 83399 83407 83464 83554 83651 83722 83746 83719 83657
3262.0017 83581 83511 83456 83414 83384 83365 83356 83356 83358 83356 83349
3267.3052 83343 83345 83357 83368 83363 83330 83272 83208 83159 83136 83135
3272.6084 83136 83122 83085 83034 82979 82934 82899 82875 82857 82845 82839
3277.9116 82835 82827 82809 82777 82733 82684 82630 82573 82511 82446 82387
3283.2148 82345 82325 82324 82330 82329 82309 82274 82231 82193 82167 82156
3288.5183 82156 82163 82172 82177 82176 82167 82148 82123 82095 82069 82042
3293.8215 82013 81976 81927 81871 81816 81775 81754 81752 81759 81762 81750
3299.1248 81726 81701 81690 81708 81757 81828 81904 81958 81973 81943 81876
3304.4280 81797 81729 81687 81671 81665 81649 81607 81537 81448 81353 81268
3309.7314 81206 81171 81163 81172 81182 81182 81163 81128 81086 81044 81003
3315.0347 80961 80914 80863 80809 80752 80686 80608 80517 80422 80333 80255
3320.3379 80190 80135 80093 80074 80084 80111 80124 80080 79950 79741 79499
3325.6411 79285 79144 79082 79069 79056 79006 78908 78777 78634 78498 78377
3330.9446 78273 78184 78107 78031 77943 77830 77692 77538 77387 77250 77130
3336.2478 77016 76899 76777 76653 76536 76427 76322 76216 76108 76000 75901
3341.5510 75813 75736 75662 75584 75499 75406 75305 75200 75095 74996 74917
3346.8542 74869 74861 74888 74935 74973 74974 74922 74819 74687 74558 74461
3352.1577 74411 74406 74431 74465 74492 74505 74508 74510 74521 74543 74569
3357.4609 74589 74594 74582 74564 74553 74566 74616 74709 74847 75026 75235
3362.7642 75460 75683 75893 76088 76274 76467 76676 76908 77156 77413 77668
3368.0674 77919 78167 78422 78691 78977 79279 79591 79905 80220 80537 80862
3373.3708 81202 81555 81917 82278 82631 82971 83300 83624 83945 84263 84571
3378.6741 84860 85126 85371 85608 85850 86105 86372 86641 86899 87135 87350
3383.9773 87550 87746 87949 88161 88380 88599 88812 89015 89206 89383 89543
3389.2805 89684 89807 89916 90018 90119 90223 90328 90427 90519 90603 90684
3394.5840 90764 90847 90934 91030 91141 91269 91410 91547 91659 91734 91774
3399.8872 91798 91831 91888 91967 92051 92122 92171 92206 92244 92297 92361
3405.1904 92425 92471 92493 92497 92501 92521 92563 92624 92694 92765 92833
3410.4937 92895 92943 92969 92964 92932 92893 92873 92892 92950 93022 93074
3415.7971 93081 93044 92990 92958 92973 93035 93119 93192 93233 93241 93234
3421.1003 93234 93252 93287 93333 93383 93432 93478 93512 93526 93510 93466
3426.4036 93407 93355 93327 93334 93371 93423 93473 93507 93522 93522 93519
3431.7068 93522 93538 93563 93590 93609 93612 93599 93575 93549 93531 93529
3437.0103 93543 93568 93598 93622 93637 93646 93652 93657 93658 93649 93629
3442.3135 93607 93599 93621 93670 93727 93766 93765 93722 93654 93593 93568
3447.6167 93588 93638 93695 93737 93757 93755 93740 93725 93720 93731 93759
3452.9199 93797 93837 93865 93870 93844 93790 93725 93668 93638 93638 93660
3458.2234 93686 93706 93716 93724 93732 93738 93731 93703 93656 93606 93568
3463.5266 93554 93561 93578 93591 93596 93592 93588 93592 93608 93636 93667
3468.8298 93690 93694 93673 93632 93583 93540 93515 93511 93526 93559 93604
3474.1331 93657 93711 93753 93772 93760 93719 93657 93585 93513 93447 93386
3479.4365 93333 93291 93264 93260 93279 93317 93366 93414 93454 93480 93490
3484.7397 93484 93467 93443 93421 93408 93403 93400 93387 93358 93317 93277
3490.0430 93253 93251 93270 93297 93316 93319 93305 93284 93265 93250 93238
3495.3462 93221 93197 93171 93149 93134 93125 93117 93105 93093 93086 93094
3500.6497 93117 93146 93166 93158 93119 93057 92995 92958 92957 92994 93058
3505.9529 93130 93193 93229 93230 93197 93140 93082 93044 93040 93069 93118
3511.2561 93167 93195 93189 93145 93074 92993 92925 92883 92872 92884 92905
3516.5593 92923 92927 92917 92897 92876 92866 92872 92895 92921 92933 92916
3521.8628 92867 92801 92745 92724 92740 92778 92816 92837 92837 92819 92793
3527.1660 92767 92745 92728 92712 92694 92669 92635 92598 92568 92557 92572
3532.4692 92611 92665 92722 92771 92804 92813 92794 92749 92690 92638 92610
3537.7725 92614 92645 92689 92730 92757 92763 92747 92710 92657 92594 92535
3543.0759 92497 92495 92527 92575 92606 92596 92540 92462 92401 92386 92419
3548.3792 92479 92537 92573 92580 92569 92556 92557 92577 92608 92636 92650
3553.6824 92648 92632 92607 92578 92545 92511 92473 92431 92385 92337 92296
3558.9856 92274 92282 92324 92391 92461 92512 92528 92504 92448 92378 92308
3564.2891 92243 92176 92089 91969 91830 91722 91708 91809 91984 92170 92313
3569.5923 92393 92413 92397 92373 92361 92364 92370 92359 92320 92259 92199
3574.8955 92163 92166 92205 92262 92313 92340 92337 92309 92271 92239 92228
3580.1990 92244 92284 92337 92383 92405 92394 92352 92292 92229 92168 92107
3585.5022 92035 91945 91852 91788 91785 91849 91949 92044 92109 92133 92127
3590.8054 92102 92075 92061 92072 92111 92168 92227 92267 92273 92241 92178
3596.1086 92104 92041 92005 92006 92045 92112 92188 92250 92276 92260 92208
3601.4121 92133 92054 91984 91933 91899 91879 91862 91838 91799 91746 91686
3606.7153 91639 91621 91642 91699 91772 91836 91872 91874 91845 91787 91704
3612.0186 91609 91527 91492 91522 91608 91719 91822 91896 91934 91943 91939
3617.3218 91940 91955 91982 92007 92022 92029 92036 92046 92053 92048 92028
3622.6252 91991 91945 91895 91847 91801 91761 91725 91694 91660 91607 91504
3627.9285 91318 91073 90902 90924 91086 91283 91457 91592 91688 91752 91795
3633.2317 91824 91844 91851 91841 91817 91794 91786 91808 91862 91932 91995
3638.5349 92025 92017 91977 91922 91867 91827 91814 91836 91889 91954 92006
3643.8384 92020 91984 91894 91754 91578 91388 91219 91098 91030 91003 91012
3649.1416 91068 91185 91347 91502 91613 91681 91722 91748 91761 91760 91740
3654.4448 91708 91674 91658 91672 91706 91739 91765 91790 91825 91875 91929
3659.7480 91967 91972 91944 91895 91848 91815 91799 91793 91787 91778 91765
3665.0515 91751 91734 91712 91679 91631 91561 91466 91344 91210 91109 91110
3670.3547 91237 91426 91588 91671 91668 91585 91433 91218 90966 90755 90712
3675.6580 90830 90966 91064 91144 91235 91348 91480 91611 91711 91766 91779
3680.9612 91765 91735 91694 91645 91587 91524 91465 91419 91399 91409 91444
3686.2646 91495 91543 91567 91546 91486 91419 91370 91342 91325 91318 91330
3691.5679 91365 91415 91466 91509 91541 91566 91590 91614 91635 91646 91643
3696.8711 91630 91614 91598 91581 91554 91512 91453 91389 91341 91331 91365
3702.1743 91428 91495 91556 91609 91656 91697 91723 91727 91708 91665 91597
3707.4778 91498 91365 91203 91036 90895 90796 90735 90712 90743 90845 90996
3712.7810 91146 91264 91350 91425 91510 91614 91728 91823 91869 91845 91747
3718.0842 91598 91445 91332 91275 91259 91265 91278 91293 91305 91306 91288
3723.3875 91254 91212 91174 91156 91169 91218 91293 91376 91449 91501 91524
3728.6909 91515 91480 91434 91403 91412 91471 91545 91564 91475 91276 91001
3733.9941 90707 90485 90438 90590 90827 91014 91101 91107 91074 91043 91038
3739.2974 91071 91145 91249 91358 91445 91493 91498 91464 91394 91297 91208
3744.6006 91170 91166 91155 91126 91087 91055 91044 91072 91135 91192 91187
3749.9041 91102 90964 90819 90720 90717 90815 90958 91092 91195 91269 91318
3755.2073 91346 91356 91355 91345 91325 91289 91236 91182 91161 91207 91312
3760.5105 91436 91539 91602 91623 91607 91565 91511 91457 91417 91402 91408
3765.8137 91420 91416 91383 91324 91250 91175 91125 91127 91189 91284 91371
3771.1172 91433 91472 91497 91518 91543 91572 91604 91630 91639 91621 91575
3776.4204 91506 91425 91347 91287 91261 91285 91355 91446 91527 91573 91579
3781.7236 91545 91481 91403 91335 91297 91297 91330 91377 91421 91459 91493
3787.0269 91525 91553 91572 91579 91574 91568 91571 91587 91612 91635 91643
3792.3303 91631 91599 91554 91508 91466 91435 91414 91398 91379 91346 91296
3797.6335 91234 91168 91105 91046 90993 90953 90941 90986 91090 91216 91321
3802.9368 91392 91427 91431 91412 91374 91328 91285 91262 91267 91289 91312
3808.2400 91331 91347 91365 91385 91403 91413 91408 91385 91345 91293 91236
3813.5435 91182 91137 91111 91110 91131 91151 91145 91116 91077 91038 91001
3818.8467 90958 90901 90829 90769 90782 90892 91038 91157 91226 91249 91235
3824.1499 91201 91163 91138 91143 91186 91255 91322 91355 91340 91281 91197
3829.4531 91115 91064 91072 91144 91244 91315 91328 91293 91240 91197 91182
3834.7566 91192 91201 91184 91130 91049 90976 90957 91012 91110 91201 91251
3840.0598 91255 91232 91208 91200 91207 91212 91198 91159 91114 91093 91114
3845.3630 91171 91246 91313 91350 91345 91296 91217 91129 91052 90995 90956
3850.6663 90919 90858 90746 90576 90402 90362 90529 90775 90951 91027 91035
3855.9697 91013 90992 90996 91030 91085 91141 91182 91199 91191 91157 91106
3861.2729 91055 91023 91015 91021 91025 91014 90991 90972 90977 91006 91040
3866.5762 91060 91057 91026 90964 90876 90788 90749 90786 90864 90935 90979
3871.8794 90995 90983 90949 90905 90877 90885 90927 90986 91045 91096 91135
3877.1829 91157 91158 91139 91101 91054 91018 91020 91068 91142 91216 91269
3882.4861 91285 91255 91174 91045 90897 90781 90757 90833 90954 91061 91130
3887.7893 91164 91171 91160 91135 91098 91054 91013 90987 90983 90997 91029
3893.0925 91080 91152 91240 91325 91381 91393 91364 91314 91267 91244 91250
3898.3960 91269 91265 91208 91097 90956 90818 90723 90701 90762 90885 91026
3903.6992 91137 91188 91178 91130 91080 91049 91046 91066 91103 91151 91201
3909.0024 91248 91284 91309 91324 91332 91336 91338 91332 91311 91272 91215
3914.3057 91152 91097 91072 91091 91155 91242 91313 91344 91333 91294 91244
3919.6091 91199 91173 91166 91175 91188 91193 91180 91139 91073 91002 90960
3924.9124 90971 91031 91112 91183 91223 91223 91191 91141 91089 91049 91023
3930.2156 91011 91012 91027 91059 91106 91160 91211 91253 91279 91284 91264
3935.5188 91216 91145 91067 91002 90974 90994 91058 91146 91225 91268 91260
3940.8223 91205 91121 91037 90982 90969 90983 91005 91022 91034 91045 91059
3946.1255 91067 91060 91033 90997 90974 90985 91032 91098 91157 91194 91209
3951.4287 91218 91235 91261 91284 91284 91250 91184 91106 91039 91003 91008
3956.7319 91050 91113 91176 91219 91230 91208 91164 91115 91084 91085 91117
3962.0354 91166 91215 91247 91260 91258 91248 91236 91220 91200 91174 91146
3967.3386 91123 91109 91105 91106 91108 91107 91103 91101 91105 91117 91135
3972.6418 91157 91179 91194 91200 91192 91173 91151 91139 91146 91172 91202
3977.9451 91212 91186 91122 91037 90962 90920 90919 90948 90985 91014 91026
3983.2485 91030 91037 91057 91089 91125 91151 91157 91137 91098 91052 91012
3988.5518 90988 90982 90987 90993 90991 90977 90954 90931 90916 90918 90939
3993.8550 90977 91025 91073 91109 91127 91122 91097 91057 91013 90977 90960
3999.1582 90970 91006 91057
##END= 
