##TITLE= STDACIDOBENZOICO
##JCAMP-DX= 4.24
##DATA TYPE= INFRARED SPECTRUM
##ORIGIN= JASCO
##OWNER= 
##DATE= 22/04/11
##TIME= 17:56:58
##SPECTROMETER/DATA SYSTEM= 
##RESOLUTION= 
##DELTAX=   0.48211674
##XUNITS= 1/CM
##YUNITS= TRANSMITTANCE
##XFACTOR= 1.00000
##YFACTOR= 1E-005
##FIRSTX=   599.7532
##LASTX=  4000.1226
##NPOINTS=     7054
##FIRSTY=      0.67349
##MAXY=      0.94558
##MINY=      0.43319
##XYDATA= (X++(Y..Y))
599.7532 67349 67630 67771 67789 67749 67720 67735 67774 67782 67708 67546
605.0565 67343 67176 67105 67135 67214 67261 67205 67031 66786 66556 66421
610.3598 66416 66504 66593 66570 66355 65945 65411 64866 64404 64066 63834
615.6631 63665 63531 63434 63396 63420 63472 63502 63487 63450 63447 63520
620.9664 63666 63822 63901 63845 63658 63396 63139 62957 62891 62951 63124
626.2697 63377 63675 63991 64316 64657 65024 65410 65774 66057 66208 66216
631.5729 66133 66048 66052 66188 66421 66659 66800 66794 66671 66526 66461
636.8762 66529 66701 66889 66994 66959 66789 66543 66298 66115 66023 66017
642.1795 66067 66123 66131 66049 65863 65595 65299 65032 64822 64658 64493
647.4828 64282 64005 63689 63387 63148 62983 62866 62758 62628 62471 62284
652.7861 62053 61750 61357 60892 60423 60030 59760 59581 59393 59082 58593
658.0894 57965 57311 56753 56354 56089 55868 55590 55183 54627 53944 53182
663.3926 52394 51639 50972 50438 50062 49863 49884 50265 51392 53976 58046
668.6959 61607 63752 65475 67457 69801 72288 74528 76109 76802 76673 76016
673.9992 75162 74314 73495 72586 71418 69893 68052 66077 64205 62604 61280
679.3025 60091 58840 57419 55878 54400 53199 52406 52031 51998 52238 52736
684.6058 53522 54606 55923 57337 58695 59878 60816 61471 61836 61955 61938
689.9091 61923 62000 62141 62194 61954 61285 60216 58949 57775 56950 56599
695.2123 56687 57013 57266 57121 56375 55075 53534 52190 51392 51237 51541
700.5156 51944 52107 51867 51291 50588 49980 49619 49578 49880 50524 51479
705.8189 52684 54068 55582 57216 58981 60857 62770 64606 66269 67728 69029
711.1222 70259 71500 72809 74231 75818 77627 79680 81919 84182 86244 87908
716.4255 89096 89889 90467 91001 91570 92130 92570 92805 92848 92815 92832
721.7288 92951 93126 93257 93253 93077 92756 92360 91973 91659 91459 91378
727.0320 91386 91427 91438 91383 91276 91164 91100 91095 91113 91094 91002
732.3353 90850 90689 90563 90466 90336 90086 89661 89074 88401 87739 87156
737.6386 86670 86261 85897 85560 85245 84944 84636 84283 83852 83340 82777
742.9419 82215 81695 81225 80771 80278 79704 79042 78332 77632 76991 76429
748.2452 75941 75525 75204 75032 75064 75319 75769 76342 76964 77594 78228
753.5485 78884 79563 80234 80836 81307 81620 81794 81888 81957 82028 82083
758.8517 82079 81987 81819 81630 81486 81427 81437 81458 81417 81269 81008
764.1550 80667 80289 79924 79609 79376 79234 79161 79101 78992 78791 78505
769.4583 78184 77886 77642 77445 77265 77076 76869 76648 76407 76125 75776
774.7616 75356 74892 74433 74031 73713 73475 73293 73138 72980 72798 72574
780.0649 72304 71994 71658 71307 70947 70576 70193 69812 69455 69137 68851
785.3682 68567 68243 67850 67391 66900 66432 66037 65741 65537 65390 65248
790.6714 65065 64814 64502 64157 63808 63475 63150 62817 62465 62100 61746
795.9747 61425 61141 60872 60579 60218 59771 59247 58693 58174 57752 57464
801.2780 57311 57264 57284 57355 57494 57740 58121 58629 59210 59796 60337
806.5813 60833 61316 61810 62295 62708 62986 63133 63250 63518 64123 65168
811.8846 66622 68323 70044 71567 72754 73562 74032 74256 74341 74389 74474
817.1879 74638 74889 75202 75543 75880 76204 76525 76865 77232 77611 77958
822.4911 78222 78365 78383 78305 78185 78078 78026 78045 78129 78254 78389
827.7944 78497 78556 78559 78522 78472 78435 78424 78436 78467 78513 78578
833.0977 78661 78743 78792 78778 78698 78592 78523 78546 78672 78858 79027
838.4010 79111 79084 78977 78851 78763 78739 78771 78830 78887 78925 78937
843.7043 78919 78867 78776 78650 78504 78361 78244 78159 78095 78030 77944
849.0076 77831 77705 77582 77473 77371 77252 77091 76876 76611 76321 76037
854.3109 75790 75609 75509 75496 75555 75650 75733 75756 75687 75520 75270
859.6141 74956 74594 74194 73763 73313 72861 72420 71987 71544 71060 70502
864.9174 69845 69073 68182 67176 66078 64934 63808 62773 61892 61207 60736
870.2207 60482 60442 60615 60999 61586 62355 63276 64311 65420 66565 67709
875.5240 68808 69817 70699 71427 71999 72431 72751 72986 73156 73278 73363
880.8273 73426 73479 73524 73553 73554 73516 73442 73343 73233 73118 72997
886.1306 72865 72718 72565 72419 72291 72189 72107 72036 71966 71891 71802
891.4338 71695 71563 71410 71250 71109 71009 70958 70934 70897 70806 70639
896.7371 70408 70147 69891 69659 69446 69237 69019 68797 68583 68390 68219
902.0404 68060 67898 67729 67555 67384 67218 67053 66881 66695 66496 66288
907.3437 66080 65876 65678 65484 65290 65092 64889 64686 64486 64294 64115
912.6470 63948 63793 63650 63523 63413 63315 63212 63085 62917 62702 62453
917.9503 62191 61944 61728 61551 61409 61289 61179 61065 60940 60796 60630
923.2535 60439 60221 59979 59729 59497 59318 59227 59245 59375 59604 59905
928.5568 60248 60605 60951 61269 61555 61811 62046 62270 62485 62692 62891
933.8601 63093 63314 63575 63891 64265 64691 65156 65646 66148 66640 67096
939.1634 67485 67782 67976 68082 68130 68165 68226 68343 68530 68787 69106
944.4667 69472 69863 70252 70612 70928 71203 71459 71727 72029 72367 72723
949.7700 73068 73379 73651 73897 74132 74366 74592 74800 74981 75135 75270
955.0732 75393 75501 75580 75613 75586 75496 75352 75172 74980 74808 74689
960.3765 74657 74736 74936 75247 75646 76106 76604 77118 77623 78090 78489
965.6798 78799 79016 79155 79243 79298 79326 79316 79255 79133 78960 78758
970.9831 78564 78417 78349 78375 78488 78662 78860 79055 79238 79420 79618
976.2864 79836 80063 80270 80438 80558 80646 80716 80776 80812 80795 80702
981.5897 80525 80277 79983 79662 79321 78952 78544 78095 77612 77113 76613
986.8929 76119 75634 75160 74705 74291 73946 73704 73595 73637 73826 74135
992.1962 74512 74892 75214 75440 75556 75586 75576 75583 75648 75758 75835
997.4995 75744 75364 74669 73791 72999 72599 72784 73539 74632 75727 76528
1002.8028 76894 76857 76555 76139 75704 75282 74868 74457 74047 73643 73241
1008.1061 72836 72436 72064 71758 71544 71425 71372 71335 71261 71111 70870
1013.4094 70545 70162 69754 69346 68953 68576 68206 67843 67502 67210 66998
1018.7126 66884 66863 66914 67005 67107 67198 67263 67291 67270 67186 67020
1024.0160 66747 66349 65846 65332 65000 65106 65886 67451 69706 72359 75009
1029.3192 77286 78965 80010 80533 80715 80720 80658 80582 80512 80456 80421
1034.6226 80409 80422 80455 80503 80562 80629 80703 80782 80864 80943 81007
1039.9258 81045 81049 81025 80993 80973 80982 81019 81070 81115 81143 81152
1045.2291 81145 81128 81100 81053 80982 80889 80785 80689 80619 80582 80569
1050.5323 80560 80532 80475 80392 80302 80226 80175 80144 80118 80081 80027
1055.8357 79962 79900 79845 79796 79741 79671 79585 79487 79390 79297 79210
1061.1389 79120 79015 78889 78734 78554 78353 78138 77910 77665 77392 77081
1066.4423 76730 76351 75967 75601 75262 74940 74612 74253 73859 73448 73064
1071.7455 72763 72603 72635 72898 73420 74206 75229 76420 77676 78873 79904
1077.0488 80697 81239 81558 81711 81753 81724 81643 81508 81312 81045 80703
1082.3521 80294 79834 79340 78826 78295 77746 77172 76573 75951 75316 74678
1087.6554 74057 73486 73018 72717 72645 72833 73277 73931 74725 75579 76420
1092.9586 77190 77847 78372 78765 79041 79225 79336 79384 79371 79290 79143
1098.2620 78939 78704 78473 78288 78186 78194 78322 78560 78881 79248 79621
1103.5652 79970 80272 80517 80703 80832 80910 80947 80953 80940 80912 80867
1108.8685 80796 80691 80549 80377 80186 79991 79801 79623 79454 79293 79134
1114.1718 78971 78800 78616 78418 78209 77991 77764 77524 77265 76986 76690
1119.4751 76387 76085 75786 75480 75154 74792 74388 73947 73477 72988 72487
1124.7783 71978 71472 70989 70564 70243 70072 70096 70343 70824 71527 72413
1130.0817 73420 74470 75487 76408 77200 77854 78379 78790 79103 79330 79489
1135.3849 79596 79667 79714 79738 79733 79695 79626 79536 79438 79343 79255
1140.6882 79166 79066 78951 78824 78698 78587 78496 78418 78338 78240 78120
1145.9915 77986 77856 77748 77669 77618 77582 77546 77501 77444 77379 77312
1151.2948 77244 77178 77110 77036 76958 76878 76801 76731 76666 76601 76526
1156.5980 76432 76316 76181 76034 75889 75755 75641 75545 75462 75378 75279
1161.9014 75157 75006 74830 74634 74425 74209 73985 73751 73506 73254 73005
1167.2046 72774 72577 72423 72305 72202 72085 71930 71723 71467 71170 70839
1172.5079 70474 70068 69616 69119 68590 68046 67505 66978 66475 66012 65611
1177.8112 65307 65131 65111 65254 65544 65944 66397 66841 67222 67505 67676
1183.1145 67745 67732 67663 67560 67451 67368 67357 67471 67760 68250 68936
1188.4177 69778 70713 71673 72596 73437 74164 74760 75214 75530 75720 75809
1193.7211 75826 75796 75733 75644 75525 75375 75194 74988 74766 74536 74305
1199.0243 74074 73840 73597 73340 73070 72794 72520 72254 71993 71731 71454
1204.3276 71152 70824 70474 70108 69733 69350 68954 68540 68105 67647 67170
1209.6309 66683 66191 65700 65210 64718 64224 63727 63236 62764 62332 61966
1214.9342 61698 61564 61605 61857 62345 63069 63998 65073 66216 67353 68427
1220.2374 69407 70279 71043 71696 72233 72651 72956 73165 73305 73402 73475
1225.5408 73528 73558 73554 73512 73437 73342 73242 73144 73045 72930 72785
1230.8440 72605 72403 72202 72028 71894 71794 71707 71606 71474 71309 71121
1236.1473 70923 70723 70523 70315 70095 69864 69626 69389 69158 68933 68711
1241.4506 68488 68261 68033 67804 67579 67357 67135 66907 66669 66414 66142
1246.7539 65856 65561 65260 64957 64652 64345 64036 63726 63415 63105 62796
1252.0571 62490 62190 61898 61614 61332 61042 60738 60416 60083 59748 59417
1257.3605 59094 58775 58454 58125 57786 57437 57079 56710 56329 55934 55525
1262.6637 55108 54684 54252 53808 53342 52849 52325 51771 51192 50595 49985
1267.9670 49370 48758 48157 47573 47006 46456 45928 45429 44972 44569 44226
1273.2703 43941 43712 43534 43407 43334 43319 43359 43445 43563 43698 43841
1278.5736 43987 44137 44295 44465 44649 44853 45085 45355 45672 46038 46444
1283.8768 46877 47322 47774 48235 48716 49223 49763 50329 50915 51513 52122
1289.1802 52747 53392 54060 54745 55438 56132 56825 57520 58220 58923 59619
1294.4834 60301 60969 61630 62299 62986 63695 64417 65138 65844 66528 67192
1299.7867 67838 68474 69102 69721 70326 70913 71481 72037 72594 73167 73771
1305.0900 74410 75083 75780 76487 77182 77840 78428 78918 79287 79522 79620
1310.3933 79586 79423 79139 78745 78259 77708 77122 76521 75916 75304 74680
1315.6965 74036 73368 72668 71924 71119 70238 69278 68260 67224 66222 65295
1320.9999 64474 63773 63203 62773 62494 62377 62426 62639 63002 63497 64098
1326.3031 64787 65553 66396 67328 68358 69489 70714 72013 73360 74725 76085
1331.6064 77421 78718 79956 81110 82160 83095 83921 84658 85327 85938 86488
1336.9097 86965 87362 87684 87952 88194 88432 88671 88900 89101 89260 89376
1342.2130 89455 89503 89525 89525 89507 89475 89433 89387 89341 89302 89269
1347.5162 89239 89206 89161 89101 89033 88966 88915 88890 88891 88915 88951
1352.8196 88994 89039 89086 89134 89182 89225 89260 89286 89306 89320 89331
1358.1228 89333 89321 89288 89231 89150 89046 88923 88786 88641 88498 88371
1363.4261 88266 88178 88096 88007 87904 87784 87651 87507 87354 87193 87026
1368.7294 86855 86682 86511 86337 86159 85976 85789 85596 85393 85172 84921
1374.0327 84644 84358 84086 83841 83616 83398 83166 82905 82610 82284 81947
1379.3359 81616 81305 81012 80730 80444 80149 79847 79549 79268 79014 78785
1384.6393 78576 78377 78180 77985 77798 77636 77507 77408 77320 77222 77103
1389.9425 76958 76792 76612 76430 76250 76068 75876 75661 75413 75137 74853
1395.2458 74589 74354 74143 73941 73736 73521 73296 73068 72852 72660 72493
1400.5491 72340 72188 72030 71861 71681 71490 71284 71059 70813 70549 70280
1405.8524 70011 69736 69441 69114 68753 68365 67963 67554 67137 66705 66256
1411.1556 65799 65347 64913 64499 64101 63719 63355 63019 62727 62492 62322
1416.4590 62214 62158 62153 62221 62415 62784 63280 63757 64120 64377 64576
1421.7622 64762 64965 65208 65501 65836 66183 66518 66840 67169 67525 67921
1427.0656 68355 68818 69316 69883 70581 71456 72480 73544 74549 75478 76387
1432.3688 77336 78333 79318 80200 80931 81531 82078 82676 83398 84170 84802
1437.6721 85215 85471 85646 85775 85865 85907 85894 85822 85691 85502 85252
1442.9753 84939 84558 84108 83596 83036 82437 81796 81082 80239 79214 78013
1448.2787 76728 75466 74253 73035 71732 70302 68796 67395 66363 65922 66142
1453.5819 66958 68246 69896 71837 74049 76519 79122 81490 83198 84190 84732
1458.8853 85073 85334 85563 85782 86004 86235 86468 86695 86905 87102 87306
1464.1885 87548 87844 88160 88439 88655 88817 88945 89049 89128 89174 89178
1469.4918 89137 89050 88917 88729 88468 88122 87730 87389 87155 86995 86852
1474.7950 86682 86453 86155 85811 85472 85177 84921 84678 84421 84135 83821
1480.0984 83491 83169 82879 82642 82468 82356 82298 82283 82300 82341 82402
1485.4016 82489 82608 82755 82910 83038 83110 83123 83096 83067 83076 83142
1490.7050 83232 83282 83251 83122 82895 82586 82216 81811 81400 81023 80746
1496.0082 80645 80758 81057 81510 82108 82832 83594 84256 84726 85011 85176
1501.3115 85291 85393 85486 85555 85588 85585 85549 85480 85358 85146 84829
1506.6147 84520 84368 84344 84355 84363 84360 84351 84333 84304 84258 84189
1511.9181 84101 84001 83895 83784 83663 83527 83370 83188 82972 82723 82468
1517.2213 82258 82113 82011 81923 81824 81692 81506 81248 80949 80704 80561
1522.5247 80472 80386 80282 80156 80011 79857 79714 79601 79520 79458 79402
1527.8279 79341 79275 79207 79131 79041 78933 78803 78656 78492 78308 78098
1533.1312 77868 77656 77500 77399 77319 77228 77112 76969 76803 76618 76407
1538.4344 76145 75812 75458 75219 75135 75126 75126 75110 75071 75015 74953
1543.7378 74902 74886 74932 75051 75221 75405 75580 75743 75907 76088 76311
1549.0410 76609 77009 77492 77984 78408 78737 78981 79169 79337 79527 79772
1554.3444 80055 80314 80504 80627 80703 80747 80761 80734 80647 80532 80523
1559.6476 80625 80735 80817 80871 80902 80916 80914 80896 80858 80797 80717
1564.9509 80630 80548 80479 80419 80361 80297 80216 80105 79948 79753 79566
1570.2542 79424 79321 79228 79122 78992 78844 78690 78547 78420 78290 78109
1575.5575 77811 77390 76975 76691 76521 76396 76264 76108 75926 75732 75541
1580.8607 75370 75229 75129 75086 75121 75259 75527 75949 76546 77324 78266
1586.1641 79325 80426 81481 82405 83134 83638 83918 84003 83931 83743 83475
1591.4674 83152 82792 82401 81982 81534 81059 80570 80080 79601 79132 78666
1596.7706 78191 77710 77235 76793 76411 76114 75919 75832 75852 75970 76180
1602.0740 76477 76854 77300 77787 78282 78762 79219 79658 80088 80511 80919
1607.3772 81304 81660 81986 82281 82534 82730 82857 82918 82926 82892 82821
1612.6805 82711 82565 82396 82219 82039 81841 81576 81181 80673 80215 79954
1617.9838 79879 79921 80033 80184 80342 80468 80527 80500 80376 80154 79846
1623.2871 79509 79229 79046 78937 78865 78815 78796 78834 78957 79165 79410
1628.5903 79627 79784 79884 79942 79969 79967 79937 79881 79804 79711 79602
1633.8937 79461 79266 78997 78689 78442 78300 78216 78141 78052 77946 77823
1639.1969 77683 77523 77343 77142 76923 76691 76451 76215 75994 75794 75613
1644.5002 75436 75235 74982 74667 74342 74090 73945 73854 73758 73631 73480
1649.8035 73316 73148 72979 72801 72597 72318 71900 71456 71250 71197 71154
1655.1068 71081 70974 70832 70658 70456 70236 70008 69782 69565 69363 69183
1660.4100 69024 68876 68712 68491 68189 67835 67502 67232 67010 66799 66570
1665.7134 66319 66060 65812 65577 65336 65057 64727 64389 64122 63949 63824
1671.0166 63690 63529 63359 63214 63110 63041 62985 62911 62799 62670 62582
1676.3199 62554 62563 62582 62594 62592 62578 62567 62585 62653 62771 62916
1681.6232 63060 63184 63284 63399 63672 64329 65209 65874 66296 66624 66948
1686.9265 67311 67731 68219 68774 69387 70038 70700 71352 71977 72567 73119
1692.2297 73628 74088 74494 74850 75176 75524 75987 76633 77338 77873 78198
1697.5331 78403 78562 78717 78913 79240 79796 80406 80753 80891 80973 81068
1702.8363 81206 81403 81663 81977 82331 82722 83163 83655 84163 84639 85061
1708.1396 85438 85795 86156 86526 86887 87211 87479 87689 87851 87979 88088
1713.4429 88209 88379 88625 88924 89213 89437 89584 89676 89774 89959 90248
1718.7462 90567 90858 91113 91346 91563 91768 91964 92156 92354 92562 92775
1724.0494 92979 93163 93326 93470 93603 93722 93821 93892 93929 93930 93898
1729.3528 93842 93784 93744 93730 93733 93733 93711 93643 93524 93412 93434
1734.6560 93609 93832 94036 94207 94346 94451 94522 94557 94558 94537 94511
1739.9594 94495 94487 94471 94429 94354 94247 94126 94027 93978 93973 93985
1745.2626 93981 93942 93864 93754 93631 93521 93445 93404 93381 93359 93330
1750.5659 93302 93299 93339 93412 93494 93566 93620 93661 93697 93735 93775
1755.8691 93810 93830 93832 93825 93821 93826 93835 93835 93815 93766 93687
1761.1725 93593 93511 93459 93435 93418 93396 93367 93338 93315 93300 93285
1766.4757 93253 93191 93094 92980 92882 92820 92790 92771 92742 92684 92586
1771.7791 92460 92357 92317 92330 92359 92377 92368 92325 92254 92170 92097
1777.0823 92044 92008 91978 91942 91893 91835 91779 91733 91694 91649 91584
1782.3856 91496 91390 91282 91192 91134 91112 91111 91110 91097 91070 91035
1787.6888 90996 90954 90908 90857 90803 90750 90703 90673 90675 90721 90804
1792.9922 90893 90956 90980 90968 90934 90898 90885 90906 90956 91014 91062
1798.2954 91092 91109 91120 91131 91142 91145 91137 91128 91136 91176 91252
1803.5988 91348 91441 91510 91544 91545 91523 91494 91466 91443 91419 91391
1808.9020 91358 91322 91292 91273 91271 91284 91305 91324 91336 91334 91319
1814.2053 91293 91260 91226 91195 91171 91157 91155 91164 91176 91179 91159
1819.5085 91110 91033 90933 90819 90701 90583 90471 90368 90285 90232 90223
1824.8119 90261 90327 90387 90420 90425 90414 90402 90401 90422 90475 90557
1830.1151 90649 90730 90791 90831 90853 90861 90860 90860 90870 90895 90933
1835.4185 90976 91015 91044 91065 91087 91122 91174 91241 91317 91389 91449
1840.7217 91492 91518 91530 91532 91521 91492 91443 91388 91352 91348 91369
1846.0250 91401 91435 91465 91489 91507 91523 91541 91567 91606 91660 91719
1851.3282 91768 91785 91756 91689 91607 91540 91510 91515 91531 91533 91508
1856.6316 91465 91433 91437 91482 91552 91618 91659 91671 91666 91655 91639
1861.9348 91612 91565 91496 91413 91322 91225 91119 91004 90887 90790 90736
1867.2382 90739 90794 90878 90957 91011 91040 91053 91060 91058 91041 91007
1872.5414 90960 90910 90865 90827 90792 90754 90715 90684 90670 90679 90709
1877.8447 90751 90795 90830 90847 90840 90806 90750 90683 90619 90570 90540
1883.1479 90522 90505 90481 90450 90422 90401 90386 90363 90320 90253 90173
1888.4513 90104 90070 90077 90101 90102 90052 89955 89835 89725 89658 89651
1893.7545 89699 89777 89846 89875 89856 89806 89759 89742 89758 89785 89785
1899.0579 89726 89611 89479 89386 89378 89463 89607 89755 89859 89898 89880
1904.3611 89832 89781 89739 89705 89667 89615 89540 89447 89345 89251 89177
1909.6644 89134 89119 89123 89129 89123 89095 89045 88983 88927 88887 88861
1914.9677 88834 88785 88708 88620 88558 88563 88642 88751 88826 88836 88792
1920.2710 88728 88671 88628 88579 88498 88382 88272 88233 88309 88498 88752
1925.5742 88993 89140 89145 89016 88809 88600 88448 88372 88354 88359 88361
1930.8776 88350 88339 88347 88394 88491 88638 88818 89001 89153 89242 89255
1936.1808 89198 89096 88983 88901 88888 88974 89160 89414 89672 89869 89966
1941.4841 89979 89976 90048 90240 90520 90818 91082 91290 91437 91504 91452
1946.7874 91254 90927 90551 90250 90136 90247 90523 90824 91010 91010 90860
1952.0907 90664 90528 90504 90579 90697 90809 90903 90997 91117 91264 91408
1957.3939 91501 91501 91395 91208 90986 90771 90578 90399 90226 90082 90024
1962.6973 90118 90387 90770 91138 91358 91373 91244 91121 91155 91399 91774
1968.0005 92127 92339 92381 92283 92074 91756 91319 90804 90329 90059 90122
1973.3038 90522 91117 91679 92011 92052 91902 91751 91750 91912 92110 92173
1978.6071 92024 91739 91499 91464 91675 92029 92336 92421 92220 91813 91374
1983.9104 91075 90999 91116 91316 91479 91536 91491 91396 91312 91275 91279
1989.2136 91289 91260 91163 90990 90773 90583 90509 90587 90766 90926 90941
1994.5170 90747 90387 90013 89821 89946 90382 90983 91526 91826 91821 91594
1999.8202 91315 91151 91190 91406 91682 91883 91935 91873 91822 91923 92236
2005.1235 92687 93084 93229 93040 92608 92140 91823 91709 91705 91665 91502
2010.4268 91253 91053 91048 91314 91808 92383 92851 93058 92940 92544 91991
2015.7301 91437 91010 90779 90757 90931 91288 91814 92448 93063 93481 93553
2021.0333 93239 92651 91999 91481 91186 91068 91015 90944 90864 90864 91055
2026.3367 91489 92127 92853 93514 93985 94202 94176 93963 93629 93213 92716
2031.6399 92128 91471 90837 90373 90230 90476 91057 91806 92518 93033 93277
2036.9432 93252 93004 92593 92092 91585 91162 90893 90805 90871 91025 91210
2042.2465 91407 91633 91905 92208 92476 92616 92554 92268 91805 91273 90805
2047.5498 90522 90490 90697 91048 91398 91614 91629 91463 91189 90891 90625
2052.8530 90416 90275 90210 90233 90350 90542 90757 90921 90966 90860 90627
2058.1563 90341 90096 89968 89994 90154 90392 90634 90819 90909 90893 90777
2063.4597 90578 90330 90082 89898 89827 89880 90023 90186 90298 90314 90233
2068.7629 90091 89935 89800 89693 89605 89521 89437 89365 89323 89330 89390
2074.0662 89484 89577 89626 89596 89478 89287 89066 88870 88752 88746 88851
2079.3694 89035 89239 89397 89463 89426 89314 89176 89059 88986 88952 88934
2084.6729 88908 88868 88827 88810 88835 88900 88978 89033 89037 88989 88910
2089.9761 88833 88782 88761 88769 88803 88867 88968 89098 89239 89364 89454
2095.2793 89509 89534 89532 89491 89401 89270 89141 89072 89106 89242 89434
2100.5825 89611 89719 89745 89714 89663 89615 89564 89499 89414 89327 89263
2105.8860 89238 89244 89260 89269 89275 89298 89354 89438 89523 89577 89589
2111.1892 89576 89572 89599 89658 89728 89781 89796 89758 89658 89496 89284
2116.4924 89059 88874 88775 88779 88866 88995 89133 89270 89410 89552 89671
2121.7957 89728 89700 89602 89490 89425 89441 89517 89592 89600 89507 89327
2127.0991 89107 88907 88771 88716 88737 88813 88929 89076 89262 89498 89780
2132.4023 90080 90337 90490 90503 90400 90255 90150 90125 90154 90166 90099
2137.7056 89946 89760 89628 89616 89727 89908 90077 90164 90149 90062 89972
2143.0088 89946 90022 90188 90392 90574 90691 90733 90712 90651 90567 90484
2148.3123 90435 90446 90508 90562 90522 90340 90063 89829 89790 90007 90396
2153.6155 90769 90953 90911 90757 90665 90746 90984 91270 91498 91630 91684
2158.9187 91658 91498 91170 90753 90431 90380 90641 91066 91392 91395 91019
2164.2219 90403 89776 89338 89168 89232 89434 89682 89916 90105 90232 90292
2169.5254 90290 90248 90189 90135 90098 90076 90050 89983 89831 89564 89198
2174.8286 88817 88548 88504 88720 89122 89558 89865 89945 89797 89508 89197
2180.1318 88962 88845 88833 88885 88968 89077 89227 89431 89672 89890 90006
2185.4351 89953 89720 89366 89009 88782 88778 89005 89379 89753 89979 89979
2190.7385 89772 89466 89187 89015 88952 88943 88928 88889 88856 88881 88987
2196.0417 89152 89310 89394 89366 89233 89038 88841 88703 88669 88760 88964
2201.3450 89229 89472 89599 89538 89272 88844 88354 87923 87666 87644 87846
2206.6482 88183 88518 88718 88709 88506 88203 87920 87748 87714 87785 87899
2211.9517 88005 88088 88165 88259 88374 88484 88547 88530 88430 88279 88123
2217.2549 88008 87963 87998 88103 88259 88434 88593 88701 88731 88669 88513
2222.5581 88276 87991 87705 87478 87364 87386 87521 87712 87890 88017 88094
2227.8613 88154 88225 88302 88345 88303 88151 87915 87660 87460 87363 87370
2233.1648 87439 87511 87539 87513 87460 87421 87430 87486 87561 87617 87631
2238.4680 87617 87611 87648 87733 87833 87899 87895 87822 87718 87628 87580
2243.7712 87565 87553 87511 87431 87327 87223 87140 87085 87056 87051 87073
2249.0745 87129 87220 87334 87450 87545 87597 87593 87526 87393 87204 86978
2254.3779 86755 86580 86494 86516 86630 86794 86958 87079 87143 87159 87151
2259.6812 87139 87130 87118 87095 87062 87029 87010 87011 87022 87021 86996
2264.9844 86948 86899 86874 86884 86919 86953 86964 86946 86915 86891 86888
2270.2876 86901 86915 86912 86884 86833 86769 86701 86638 86584 86540 86503
2275.5911 86470 86441 86417 86405 86405 86412 86412 86385 86321 86227 86122
2280.8943 86033 85980 85968 85988 86020 86043 86044 86024 85992 85966 85960
2286.1975 85981 86019 86057 86075 86064 86032 85992 85960 85938 85916 85884
2291.5007 85837 85788 85758 85765 85809 85869 85917 85928 85900 85850 85807
2296.8042 85796 85829 85896 85976 86041 86062 86026 85936 85817 85703 85626
2302.1074 85598 85610 85639 85667 85692 85727 85787 85876 85970 86035 86039
2307.4106 85971 85852 85719 85611 85552 85542 85564 85593 85610 85609 85597
2312.7139 85588 85587 85594 85604 85612 85619 85633 85658 85691 85717 85720
2318.0173 85692 85641 85588 85556 85555 85577 85605 85619 85611 85582 85539
2323.3206 85487 85430 85375 85333 85311 85311 85325 85335 85325 85290 85239
2328.6238 85198 85196 85250 85359 85496 85620 85686 85671 85581 85454 85342
2333.9270 85282 85285 85331 85390 85434 85452 85451 85443 85432 85419 85403
2339.2305 85390 85385 85390 85395 85389 85374 85363 85371 85400 85427 85421
2344.5337 85362 85259 85146 85055 85001 84974 84955 84933 84904 84874 84850
2349.8369 84842 84857 84897 84960 85035 85114 85196 85289 85400 85526 85644
2355.1401 85727 85761 85756 85746 85757 85788 85813 85806 85772 85746 85762
2360.4436 85813 85847 85802 85658 85457 85274 85167 85136 85129 85086 84984
2365.7468 84851 84740 84694 84721 84792 84863 84898 84882 84818 84723 84619
2371.0500 84525 84457 84420 84412 84422 84441 84460 84474 84479 84468 84435
2376.3533 84376 84296 84207 84130 84081 84065 84076 84096 84107 84098 84070
2381.6567 84032 84000 83983 83986 84002 84018 84023 84008 83979 83944 83917
2386.9600 83904 83906 83916 83925 83927 83920 83905 83885 83862 83840 83825
2392.2632 83820 83826 83839 83852 83857 83851 83837 83821 83809 83801 83794
2397.5664 83780 83752 83705 83646 83590 83555 83555 83592 83650 83707 83738
2402.8699 83732 83695 83641 83588 83551 83535 83539 83553 83567 83571 83559
2408.1731 83530 83491 83447 83403 83358 83311 83263 83222 83201 83209 83245
2413.4763 83295 83338 83356 83342 83304 83259 83227 83219 83234 83264 83295
2418.7795 83313 83310 83285 83241 83185 83128 83082 83058 83063 83094 83146
2424.0830 83203 83251 83275 83268 83231 83171 83102 83038 82989 82955 82936
2429.3862 82923 82910 82893 82868 82840 82814 82796 82793 82806 82835 82872
2434.6895 82909 82934 82937 82911 82860 82797 82741 82709 82709 82736 82772
2439.9927 82802 82813 82803 82774 82730 82674 82607 82536 82469 82416 82381
2445.2961 82366 82362 82360 82352 82331 82296 82251 82202 82158 82127 82112
2450.5994 82111 82113 82106 82081 82037 81982 81930 81892 81871 81864 81868
2455.9026 81879 81903 81943 81996 82050 82089 82100 82077 82026 81959 81886
2461.2058 81814 81746 81683 81628 81584 81555 81540 81536 81537 81537 81531
2466.5093 81516 81489 81453 81411 81368 81333 81311 81305 81309 81315 81314
2471.8125 81298 81265 81224 81184 81161 81160 81182 81217 81247 81255 81230
2477.1157 81172 81094 81017 80964 80946 80959 80984 80996 80973 80910 80823
2482.4189 80738 80683 80668 80688 80720 80745 80750 80737 80713 80688 80663
2487.7224 80637 80606 80572 80538 80510 80493 80491 80503 80526 80549 80559
2493.0256 80543 80495 80422 80338 80260 80204 80178 80186 80222 80275 80325
2498.3289 80347 80323 80251 80147 80040 79958 79914 79899 79892 79875 79842
2503.6321 79802 79772 79765 79785 79826 79873 79909 79917 79884 79811 79713
2508.9355 79620 79562 79554 79591 79646 79688 79703 79697 79692 79707 79749
2514.2388 79803 79844 79851 79815 79739 79638 79528 79425 79338 79267 79210
2519.5420 79159 79108 79059 79020 79001 79005 79024 79046 79059 79056 79037
2524.8452 79007 78970 78931 78890 78855 78829 78815 78811 78807 78796 78769
2530.1487 78727 78674 78615 78554 78497 78449 78415 78399 78402 78413 78417
2535.4519 78395 78340 78255 78155 78060 77985 77938 77916 77914 77925 77943
2540.7551 77966 77991 78014 78033 78042 78033 78001 77940 77857 77765 77686
2546.0583 77638 77630 77653 77688 77711 77703 77662 77603 77555 77544 77584
2551.3618 77664 77757 77826 77846 77814 77749 77680 77637 77633 77665 77717
2556.6650 77769 77807 77821 77812 77785 77747 77710 77682 77671 77684 77722
2561.9683 77777 77835 77880 77902 77903 77899 77906 77936 77985 78034 78064
2567.2715 78065 78045 78027 78035 78088 78185 78315 78456 78587 78692 78761
2572.5750 78799 78815 78827 78852 78905 78991 79103 79226 79339 79427 79485
2577.8782 79525 79568 79633 79726 79840 79952 80044 80105 80138 80156 80170
2583.1814 80189 80213 80237 80254 80260 80253 80239 80227 80226 80235 80240
2588.4849 80224 80176 80099 80015 79946 79906 79889 79875 79844 79789 79720
2593.7881 79654 79603 79565 79528 79479 79414 79341 79272 79211 79158 79100
2599.0913 79032 78955 78882 78827 78800 78797 78807 78817 78817 78804 78779
2604.3945 78744 78701 78653 78604 78563 78540 78543 78576 78636 78713 78794
2609.6980 78866 78918 78950 78968 78981 78995 79010 79025 79034 79041 79050
2615.0012 79065 79085 79104 79115 79117 79116 79120 79136 79165 79199 79227
2620.3044 79239 79230 79199 79155 79106 79061 79023 78992 78964 78933 78901
2625.6077 78871 78845 78825 78806 78783 78756 78723 78687 78645 78593 78525
2630.9111 78440 78345 78251 78170 78104 78051 78009 77975 77952 77937 77928
2636.2144 77915 77889 77848 77800 77756 77728 77718 77721 77727 77726 77713
2641.5176 77688 77654 77613 77572 77535 77510 77501 77506 77519 77530 77529
2646.8208 77514 77489 77462 77441 77428 77420 77411 77395 77370 77341 77311
2652.1243 77287 77270 77257 77244 77224 77197 77165 77133 77105 77082 77062
2657.4275 77040 77014 76988 76967 76960 76967 76984 77001 77011 77011 77004
2662.7307 76992 76975 76951 76916 76873 76829 76793 76773 76770 76781 76798
2668.0339 76814 76825 76827 76818 76799 76774 76749 76733 76729 76737 76752
2673.3374 76765 76771 76769 76761 76749 76736 76722 76711 76707 76714 76738
2678.6406 76775 76823 76873 76921 76964 77002 77033 77057 77074 77082 77085
2683.9438 77086 77091 77102 77121 77148 77185 77231 77285 77343 77401 77458
2689.2471 77514 77569 77624 77678 77729 77778 77827 77881 77941 78007 78078
2694.5505 78150 78222 78294 78364 78429 78488 78540 78589 78640 78697 78760
2699.8538 78824 78884 78939 78989 79037 79081 79118 79144 79157 79165 79174
2705.1570 79192 79217 79244 79260 79257 79232 79192 79147 79104 79066 79031
2710.4602 78994 78955 78914 78878 78850 78828 78803 78766 78711 78640 78561
2715.7637 78486 78422 78373 78338 78310 78284 78258 78232 78207 78182 78152
2721.0669 78112 78060 77999 77938 77890 77861 77851 77850 77846 77833 77813
2726.3701 77791 77770 77749 77725 77695 77662 77635 77622 77625 77639 77656
2731.6733 77671 77681 77691 77706 77728 77756 77784 77806 77819 77823 77823
2736.9768 77822 77823 77825 77826 77822 77814 77804 77793 77781 77764 77737
2742.2800 77699 77650 77595 77541 77491 77449 77413 77381 77346 77306 77261
2747.5833 77211 77160 77111 77064 77018 76970 76918 76861 76800 76736 76671
2752.8865 76612 76564 76532 76514 76506 76497 76483 76463 76441 76428 76428
2758.1899 76440 76454 76458 76442 76404 76352 76298 76253 76219 76193 76166
2763.4932 76133 76092 76047 76006 75975 75955 75943 75933 75915 75885 75842
2768.7964 75792 75744 75703 75672 75642 75605 75556 75497 75437 75386 75345
2774.0996 75310 75270 75217 75150 75074 74996 74924 74864 74816 74778 74745
2779.4031 74711 74669 74618 74560 74504 74457 74424 74403 74388 74372 74351
2784.7063 74326 74298 74270 74244 74216 74184 74143 74094 74041 73991 73950
2790.0095 73919 73892 73857 73808 73741 73663 73582 73509 73446 73392 73342
2795.3127 73293 73243 73194 73144 73089 73024 72949 72865 72777 72694 72620
2800.6162 72559 72510 72471 72441 72416 72392 72364 72326 72281 72232 72190
2805.9194 72159 72140 72123 72096 72048 71977 71892 71806 71733 71679 71644
2811.2227 71622 71604 71586 71566 71545 71522 71498 71472 71446 71422 71406
2816.5259 71400 71405 71420 71441 71467 71493 71515 71528 71531 71528 71526
2821.8293 71534 71555 71588 71626 71661 71690 71718 71748 71786 71831 71880
2827.1326 71929 71977 72027 72082 72144 72211 72276 72335 72387 72435 72486
2832.4358 72549 72628 72722 72825 72927 73021 73106 73187 73270 73358 73449
2837.7390 73537 73614 73680 73737 73791 73849 73910 73976 74044 74118 74200
2843.0425 74290 74386 74481 74568 74643 74704 74757 74806 74854 74904 74958
2848.3457 75018 75085 75158 75232 75302 75363 75413 75456 75499 75552 75619
2853.6489 75703 75800 75903 76003 76093 76166 76220 76259 76286 76305 76321
2858.9521 76335 76351 76373 76405 76451 76515 76593 76679 76761 76831 76881
2864.2556 76905 76903 76879 76845 76817 76808 76826 76866 76913 76954 76980
2869.5588 76994 77005 77025 77056 77093 77131 77168 77208 77263 77339 77433
2874.8621 77535 77630 77707 77763 77802 77831 77853 77869 77878 77884 77895
2880.1653 77916 77951 78000 78058 78121 78182 78239 78287 78324 78349 78366
2885.4688 78383 78407 78442 78487 78540 78592 78641 78684 78721 78751 78776
2890.7720 78801 78830 78864 78904 78945 78983 79014 79040 79067 79102 79148
2896.0752 79203 79259 79310 79352 79388 79422 79457 79492 79521 79538 79542
2901.3784 79538 79534 79542 79568 79614 79677 79753 79834 79911 79974 80016
2906.6819 80032 80028 80012 79997 79993 80003 80024 80049 80071 80089 80106
2911.9851 80129 80162 80204 80245 80271 80275 80260 80241 80237 80262 80317
2917.2883 80396 80482 80562 80627 80672 80695 80695 80680 80664 80666 80699
2922.5916 80766 80850 80928 80976 80983 80955 80910 80864 80825 80795 80772
2927.8950 80759 80763 80792 80847 80916 80978 81012 81007 80966 80905 80844
2933.1982 80798 80772 80760 80751 80736 80714 80693 80684 80692 80714 80740
2938.5015 80754 80744 80707 80651 80585 80524 80480 80465 80483 80528 80589
2943.8047 80644 80677 80678 80652 80610 80568 80534 80510 80493 80477 80458
2949.1082 80439 80425 80425 80448 80498 80574 80665 80754 80820 80848 80838
2954.4114 80800 80753 80719 80706 80713 80732 80752 80772 80794 80819 80844
2959.7146 80861 80862 80848 80832 80825 80834 80852 80865 80863 80845 80825
2965.0178 80821 80841 80882 80932 80973 80996 80998 80987 80972 80963 80964
2970.3213 80974 80989 81000 81004 81001 80998 80999 81002 80998 80978 80935
2975.6245 80875 80809 80755 80725 80727 80759 80809 80864 80905 80924 80919
2980.9277 80900 80884 80881 80895 80920 80943 80955 80954 80945 80935 80931
2986.2310 80931 80929 80915 80881 80829 80765 80703 80654 80624 80612 80614
2991.5344 80626 80650 80689 80743 80807 80865 80901 80903 80870 80814 80754
2996.8376 80709 80687 80690 80708 80728 80741 80741 80735 80730 80736 80754
3002.1409 80778 80797 80803 80791 80769 80749 80741 80752 80779 80813 80845
3007.4441 80869 80880 80878 80868 80856 80849 80852 80865 80883 80902 80916
3012.7476 80927 80939 80955 80974 80988 80990 80977 80953 80930 80922 80938
3018.0508 80977 81027 81072 81098 81097 81074 81045 81033 81052 81104 81174
3023.3540 81237 81275 81278 81258 81229 81208 81198 81195 81193 81189 81189
3028.6572 81201 81225 81257 81285 81295 81286 81265 81244 81236 81248 81280
3033.9607 81329 81389 81457 81528 81594 81648 81681 81693 81686 81668 81648
3039.2639 81632 81623 81621 81630 81655 81695 81746 81799 81841 81866 81875
3044.5671 81875 81871 81868 81865 81859 81850 81842 81836 81826 81804 81761
3049.8704 81694 81616 81548 81510 81513 81549 81594 81619 81601 81536 81440
3055.1738 81342 81267 81227 81214 81206 81178 81118 81028 80926 80831 80759
3060.4771 80711 80681 80660 80641 80625 80615 80614 80616 80615 80601 80568
3065.7803 80518 80455 80384 80312 80241 80173 80107 80045 79989 79944 79915
3071.0835 79911 79938 80001 80098 80225 80378 80560 80775 81029 81319 81627
3076.3870 81923 82177 82368 82495 82573 82621 82656 82681 82695 82692 82676
3081.6902 82657 82646 82654 82682 82723 82769 82810 82844 82872 82899 82930
3086.9934 82967 83008 83045 83072 83091 83104 83119 83140 83162 83174 83168
3092.2966 83138 83090 83036 82993 82978 83000 83062 83153 83257 83354 83434
3097.6001 83496 83550 83611 83686 83776 83870 83955 84020 84063 84084 84086
3102.9033 84076 84064 84063 84087 84143 84227 84324 84414 84481 84519 84533
3108.2065 84538 84544 84561 84589 84628 84676 84734 84803 84884 84972 85060
3113.5098 85141 85212 85273 85330 85386 85441 85494 85542 85582 85614 85639
3118.8132 85658 85668 85670 85665 85652 85636 85618 85603 85594 85595 85609
3124.1165 85639 85689 85756 85839 85932 86026 86112 86181 86224 86235 86217
3129.4197 86176 86124 86073 86037 86023 86035 86071 86129 86201 86278 86350
3134.7229 86405 86438 86448 86445 86443 86451 86471 86499 86523 86539 86546
3140.0264 86551 86560 86577 86600 86625 86649 86667 86678 86681 86678 86673
3145.3296 86673 86683 86697 86708 86706 86691 86673 86671 86698 86756 86832
3150.6328 86903 86951 86967 86957 86928 86892 86854 86818 86791 86781 86797
3155.9360 86841 86904 86967 87009 87011 86972 86906 86838 86790 86771 86776
3161.2395 86787 86794 86792 86789 86797 86815 86836 86845 86839 86823 86814
3166.5427 86824 86853 86890 86916 86923 86912 86893 86876 86863 86851 86832
3171.8459 86804 86769 86738 86725 86742 86795 86878 86973 87052 87086 87059
3177.1492 86979 86874 86782 86736 86745 86793 86848 86880 86878 86851 86823
3182.4526 86814 86829 86852 86859 86829 86760 86669 86584 86528 86513 86530
3187.7559 86557 86571 86553 86499 86421 86343 86288 86275 86305 86364 86429
3193.0591 86473 86474 86426 86340 86235 86136 86062 86014 85983 85951 85906
3198.3623 85851 85798 85765 85757 85764 85767 85744 85684 85593 85489 85393
3203.6658 85321 85278 85257 85249 85242 85231 85210 85177 85125 85052 84964
3208.9690 84873 84796 84744 84718 84705 84686 84646 84586 84516 84453 84406
3214.2722 84374 84341 84295 84232 84160 84094 84044 84011 83985 83949 83894
3219.5754 83822 83739 83656 83577 83499 83420 83338 83256 83179 83111 83060
3224.8789 83028 83017 83023 83036 83039 83017 82964 82891 82818 82764 82737
3230.1821 82729 82727 82720 82705 82691 82686 82694 82713 82740 82774 82817
3235.4854 82868 82925 82981 83029 83071 83111 83153 83201 83252 83305 83361
3240.7886 83421 83486 83556 83631 83712 83807 83920 84046 84172 84281 84365
3246.0920 84431 84498 84587 84706 84848 84995 85129 85242 85337 85420 85502
3251.3953 85588 85678 85772 85870 85964 86045 86105 86138 86151 86153 86164
3256.6985 86199 86270 86380 86518 86669 86812 86932 87024 87093 87147 87194
3262.0017 87236 87269 87292 87304 87309 87314 87320 87329 87342 87361 87385
3267.3052 87411 87432 87440 87429 87404 87377 87362 87373 87414 87482 87569
3272.6084 87657 87729 87773 87789 87787 87783 87790 87809 87834 87854 87862
3277.9116 87861 87856 87852 87852 87854 87859 87872 87898 87938 87982 88015
3283.2148 88025 88008 87972 87931 87898 87879 87874 87878 87890 87907 87929
3288.5183 87953 87977 88001 88025 88052 88080 88107 88126 88134 88130 88113
3293.8215 88088 88057 88021 87983 87944 87910 87884 87869 87866 87868 87871
3299.1248 87869 87855 87828 87788 87743 87700 87668 87655 87661 87678 87694
3304.4280 87696 87674 87625 87550 87453 87338 87215 87096 86997 86933 86906
3309.7314 86906 86910 86894 86845 86768 86677 86588 86505 86422 86329 86224
3315.0347 86116 86023 85955 85911 85880 85844 85797 85745 85701 85675 85669
3320.3379 85670 85663 85639 85602 85566 85543 85538 85546 85552 85547 85531
3325.6411 85513 85513 85547 85624 85740 85885 86040 86191 86330 86459 86585
3330.9446 86717 86859 87007 87150 87282 87401 87517 87644 87793 87965 88145
3336.2478 88312 88446 88537 88593 88637 88692 88776 88895 89038 89186 89322
3341.5510 89437 89536 89632 89740 89866 90005 90143 90267 90366 90443 90509
3346.8542 90583 90678 90796 90924 91037 91105 91113 91063 90979 90895 90842
3352.1577 90834 90867 90921 90978 91026 91070 91123 91200 91303 91422 91538
3357.4609 91628 91681 91700 91697 91687 91681 91682 91686 91694 91706 91725
3362.7642 91751 91783 91818 91856 91896 91940 91984 92016 92024 92004 91964
3368.0674 91920 91892 91889 91910 91947 91990 92034 92078 92121 92161 92195
3373.3708 92226 92260 92303 92358 92416 92461 92477 92460 92418 92371 92340
3378.6741 92340 92373 92426 92483 92526 92547 92547 92534 92520 92514 92519
3383.9773 92537 92565 92600 92638 92675 92705 92731 92761 92808 92879 92967
3389.2805 93052 93107 93115 93077 93014 92952 92908 92887 92878 92872 92869
3394.5840 92873 92891 92921 92954 92982 93002 93022 93050 93088 93126 93149
3399.8872 93141 93104 93053 93017 93016 93056 93122 93186 93223 93223 93197
3405.1904 93168 93155 93160 93172 93172 93151 93117 93087 93077 93088 93102
3410.4937 93100 93077 93048 93039 93070 93138 93216 93267 93270 93230 93176
3415.7971 93140 93141 93174 93216 93240 93231 93189 93133 93085 93066 93084
3421.1003 93135 93206 93281 93346 93386 93394 93370 93323 93274 93245 93250
3426.4036 93290 93348 93398 93418 93406 93371 93337 93317 93317 93327 93336
3431.7068 93340 93344 93361 93400 93465 93545 93622 93676 93690 93661 93601
3437.0103 93533 93478 93452 93454 93470 93482 93477 93456 93433 93427 93447
3442.3135 93492 93547 93594 93621 93629 93623 93609 93590 93562 93523 93474
3447.6167 93426 93387 93362 93349 93346 93347 93354 93373 93412 93472 93547
3452.9199 93620 93669 93684 93667 93635 93611 93612 93634 93663 93678 93670
3458.2234 93646 93622 93614 93625 93651 93679 93702 93722 93741 93763 93784
3463.5266 93798 93802 93800 93796 93794 93791 93782 93762 93733 93708 93701
3468.8298 93727 93789 93877 93968 94037 94060 94029 93953 93856 93771 93725
3474.1331 93728 93772 93836 93895 93934 93951 93951 93938 93915 93883 93849
3479.4365 93828 93835 93880 93953 94034 94095 94124 94123 94109 94100 94102
3484.7397 94112 94120 94117 94095 94051 93988 93916 93851 93807 93792 93807
3490.0430 93844 93900 93971 94055 94141 94211 94245 94229 94173 94101 94046
3495.3462 94029 94050 94086 94110 94104 94067 94013 93958 93917 93897 93897
3500.6497 93910 93928 93942 93947 93949 93960 93991 94041 94099 94145 94162
3505.9529 94146 94102 94044 93989 93944 93912 93892 93883 93886 93904 93934
3511.2561 93970 94004 94031 94051 94068 94087 94105 94114 94105 94078 94037
3516.5593 93994 93958 93929 93906 93890 93884 93893 93915 93942 93961 93962
3521.8628 93945 93921 93903 93902 93918 93946 93973 93991 93992 93978 93959
3527.1660 93951 93966 93997 94025 94028 93999 93955 93926 93937 93988 94056
3532.4692 94107 94116 94082 94025 93973 93946 93951 93974 93995 93999 93986
3537.7725 93967 93961 93978 94016 94060 94087 94084 94054 94012 93981 93975
3543.0759 93995 94031 94064 94084 94085 94073 94056 94040 94032 94033 94039
3548.3792 94040 94024 93986 93927 93857 93795 93758 93754 93779 93817 93853
3553.6824 93879 93895 93908 93926 93958 94005 94058 94099 94111 94086 94029
3558.9856 93964 93918 93907 93926 93955 93967 93956 93930 93909 93911 93936
3564.2891 93969 93986 93971 93921 93860 93820 93820 93852 93890 93916 93928
3569.5923 93936 93948 93969 93995 94014 94018 94002 93975 93949 93933 93930
3574.8955 93933 93932 93925 93918 93918 93930 93951 93972 93983 93983 93979
3580.1990 93979 93986 93994 93994 93975 93934 93875 93811 93755 93724 93727
3585.5022 93774 93858 93962 94048 94085 94061 93990 93900 93813 93744 93701
3590.8054 93682 93687 93710 93746 93789 93838 93888 93929 93952 93951 93931
3596.1086 93908 93890 93875 93852 93809 93746 93678 93627 93606 93610 93624
3601.4121 93635 93647 93674 93724 93794 93860 93901 93902 93868 93819 93783
3606.7153 93775 93792 93806 93790 93734 93659 93597 93572 93592 93651 93734
3612.0186 93818 93874 93886 93864 93835 93824 93834 93851 93854 93830 93780
3617.3218 93721 93675 93651 93635 93602 93545 93485 93452 93459 93498 93545
3622.6252 93583 93602 93611 93620 93634 93649 93651 93636 93608 93589 93607
3627.9285 93684 93809 93906 93908 93840 93760 93698 93659 93642 93640 93645
3633.2317 93652 93657 93658 93657 93655 93654 93652 93652 93658 93672 93696
3638.5349 93723 93748 93763 93769 93768 93767 93773 93787 93800 93801 93783
3643.8384 93746 93697 93642 93585 93522 93445 93347 93231 93121 93044 93026
3649.1416 93086 93229 93419 93587 93683 93705 93678 93630 93581 93543 93523
3654.4448 93525 93550 93591 93632 93657 93659 93648 93634 93624 93619 93617
3659.7480 93616 93614 93614 93619 93631 93646 93655 93650 93631 93606 93586
3665.0515 93579 93580 93572 93539 93468 93355 93215 93084 93013 93057 93221
3670.3547 93436 93601 93675 93680 93653 93629 93627 93661 93725 93774 93733
3675.6580 93605 93481 93399 93348 93310 93281 93264 93274 93314 93373 93431
3680.9612 93471 93490 93493 93488 93485 93489 93496 93499 93491 93468 93431
3686.2646 93384 93337 93300 93288 93300 93324 93346 93368 93398 93445 93498
3691.5679 93542 93564 93568 93563 93559 93563 93576 93593 93609 93620 93621
3696.8711 93609 93584 93549 93511 93476 93451 93439 93441 93459 93488 93523
3702.1743 93553 93572 93578 93571 93553 93523 93483 93439 93398 93369 93358
3707.4778 93363 93377 93383 93365 93324 93281 93264 93292 93356 93422 93457
3712.7810 93460 93456 93460 93470 93471 93447 93397 93336 93287 93269 93289
3718.0842 93339 93396 93439 93457 93451 93421 93366 93289 93206 93149 93137
3723.3875 93166 93212 93248 93251 93214 93153 93106 93106 93159 93245 93333
3728.6909 93401 93439 93447 93436 93415 93391 93361 93317 93254 93175 93095
3733.9941 93038 93037 93116 93254 93380 93443 93438 93391 93337 93306 93312
3739.2974 93353 93410 93452 93454 93414 93356 93313 93316 93391 93538 93682
3744.6006 93697 93605 93514 93466 93456 93463 93464 93435 93361 93252 93147
3749.9041 93076 93039 93029 93052 93116 93209 93296 93351 93370 93362 93335
3755.2073 93303 93280 93272 93279 93292 93303 93312 93324 93340 93361 93380
3760.5105 93395 93406 93414 93420 93419 93407 93385 93359 93340 93333 93333
3765.8137 93324 93292 93241 93183 93133 93103 93100 93121 93150 93173 93193
3771.1172 93224 93278 93353 93440 93518 93567 93573 93538 93475 93408 93355
3776.4204 93326 93315 93305 93271 93202 93110 93041 93034 93092 93185 93277
3781.7236 93344 93379 93387 93379 93366 93348 93322 93287 93246 93208 93179
3787.0269 93162 93161 93181 93222 93283 93350 93407 93437 93434 93403 93356
3792.3303 93305 93258 93217 93179 93143 93108 93078 93061 93064 93086 93124
3797.6335 93171 93226 93294 93378 93477 93577 93635 93590 93440 93266 93142
3802.9368 93078 93053 93045 93041 93040 93045 93067 93110 93164 93208 93234
3808.2400 93248 93259 93270 93279 93281 93275 93261 93244 93230 93219 93210
3813.5435 93203 93198 93197 93205 93224 93249 93267 93275 93272 93261 93239
3818.8467 93205 93162 93124 93119 93172 93262 93336 93370 93367 93338 93293
3824.1499 93241 93190 93150 93133 93145 93186 93243 93301 93348 93380 93394
3829.4531 93393 93373 93335 93285 93235 93194 93162 93131 93089 93032 92963
3834.7566 92896 92848 92833 92853 92910 92990 93066 93103 93093 93061 93038
3840.0598 93040 93064 93085 93085 93060 93026 93012 93044 93120 93208 93273
3845.3630 93297 93281 93241 93194 93151 93120 93100 93090 93086 93085 93085
3850.6663 93083 93081 93089 93128 93214 93315 93347 93277 93158 93051 92983
3855.9697 92962 92983 93035 93093 93132 93141 93122 93084 93033 92975 92916
3861.2729 92867 92840 92840 92861 92895 92928 92946 92939 92912 92880 92853
3866.5762 92832 92812 92792 92775 92771 92796 92862 92953 93038 93104 93154
3871.8794 93190 93210 93207 93180 93139 93103 93084 93073 93057 93030 92993
3877.1829 92954 92918 92884 92844 92795 92745 92724 92757 92840 92943 93037
3882.4861 93105 93142 93149 93135 93116 93104 93104 93107 93101 93083 93059
3887.7893 93034 93011 92990 92967 92942 92914 92887 92866 92854 92853 92864
3893.0925 92893 92945 93021 93115 93207 93278 93315 93315 93283 93228 93163
3898.3960 93105 93065 93046 93039 93032 93010 92961 92876 92759 92629 92520
3903.6992 92465 92486 92576 92703 92831 92943 93036 93115 93178 93218 93229
3909.0024 93210 93173 93137 93112 93097 93082 93055 93017 92977 92952 92949
3914.3057 92966 92992 93015 93029 93033 93033 93036 93040 93044 93047 93047
3919.6091 93047 93043 93025 92987 92925 92843 92754 92682 92652 92680 92761
3924.9124 92860 92944 92997 93022 93031 93035 93039 93038 93027 93002 92965
3930.2156 92922 92878 92838 92809 92803 92827 92882 92957 93035 93097 93133
3935.5188 93136 93110 93062 93004 92948 92911 92904 92931 92983 93038 93076
3940.8223 93079 93047 92998 92958 92952 92978 93018 93046 93052 93036 93009
3946.1255 92984 92970 92966 92965 92960 92956 92961 92986 93030 93081 93121
3951.4287 93133 93112 93060 92989 92915 92854 92818 92815 92844 92899 92965
3956.7319 93022 93051 93045 93005 92948 92891 92851 92836 92845 92867 92893
3962.0354 92914 92929 92940 92953 92972 93002 93043 93093 93142 93178 93189
3967.3386 93169 93123 93062 92999 92942 92897 92866 92857 92874 92912 92958
3972.6418 92994 93009 93009 93008 93021 93044 93062 93058 93027 92985 92952
3977.9451 92945 92962 92988 93004 93004 92991 92979 92977 92983 92991 92992
3983.2485 92982 92966 92949 92942 92949 92972 93005 93037 93055 93050 93022
3988.5518 92983 92948 92931 92933 92945 92952 92946 92932 92923 92932 92964
3993.8550 93007 93041 93048 93020 92973 92929 92909 92922 92962 93011 93054
3999.1582 93082 93092 93085
##END= 
