##TITLE= STDNICOTINAMIDE
##JCAMP-DX= 4.24
##DATA TYPE= INFRARED SPECTRUM
##ORIGIN= JASCO
##OWNER= 
##DATE= 22/03/31
##TIME= 09:33:19
##SPECTROMETER/DATA SYSTEM= 
##RESOLUTION= 
##DELTAX=   0.48211674
##XUNITS= 1/CM
##YUNITS= TRANSMITTANCE
##XFACTOR= 1.00000
##YFACTOR= 1E-005
##FIRSTX=   599.7532
##LASTX=  4000.1226
##NPOINTS=     7054
##FIRSTY=      0.52557
##MAXY=      1.00000
##MINY=      0.52554
##XYDATA= (X++(Y..Y))
599.7532 52557 52554 52577 52686 52907 53226 53602 53994 54374 54741 55112
605.0565 55505 55926 56363 56802 57241 57692 58173 58683 59195 59660 60037
610.3598 60316 60518 60685 60854 61038 61230 61411 61561 61661 61692 61636
615.6631 61481 61221 60859 60411 59909 59407 58984 58733 58738 59041 59612
620.9664 60350 61124 61828 62427 62952 63466 64029 64692 65496 66479 67660
626.2697 69016 70480 71966 73406 74779 76104 77403 78659 79801 80734 81387
631.5729 81753 81902 81951 82016 82172 82431 82764 83116 83437 83694 83870
636.8762 83964 83978 83920 83797 83620 83398 83134 82819 82427 81922 81268
642.1795 80445 79472 78423 77440 76712 76424 76682 77467 78641 80011 81406
647.4828 82732 83973 85143 86237 87207 87998 88585 89002 89313 89569 89778
652.7861 89908 89922 89805 89575 89268 88919 88562 88231 87967 87797 87722
658.0894 87714 87727 87733 87727 87724 87737 87768 87820 87915 88095 88405
663.3926 88857 89415 90019 90638 91310 92144 93315 95049 97493 99961 100000
668.6959 96899 93606 91431 90064 89101 88335 87707 87228 86905 86697 86534
673.9992 86371 86224 86165 86277 86594 87088 87689 88328 88970 89609 90245
679.3025 90850 91360 91693 91784 91596 91109 90316 89237 87942 86572 85305
684.6058 84294 83607 83201 82951 82714 82398 81993 81553 81151 80821 80544
689.9091 80268 79947 79576 79190 78840 78546 78266 77897 77315 76439 75280
695.2123 73930 72515 71129 69810 68556 67377 66325 65490 64959 64765 64870
700.5156 65195 65667 66268 67034 68013 69221 70614 72105 73606 75065 76476
705.8189 77852 79198 80497 81708 82782 83676 84365 84851 85164 85366 85532
711.1222 85729 85996 86328 86685 87013 87257 87377 87356 87199 86939 86635
716.4255 86352 86148 86050 86048 86111 86204 86305 86410 86525 86650 86775
721.7288 86883 86957 86987 86978 86947 86925 86947 87038 87197 87402 87608
727.0320 87769 87856 87869 87841 87817 87839 87925 88058 88197 88293 88310
732.3353 88239 88101 87939 87802 87728 87738 87829 87979 88158 88332 88477
737.6386 88585 88660 88718 88773 88833 88895 88947 88976 88983 88980 88992
742.9419 89046 89149 89287 89425 89523 89557 89526 89446 89332 89192 89029
748.2452 88852 88690 88582 88556 88605 88677 88696 88591 88338 87972 87570
753.5485 87212 86945 86764 86629 86493 86331 86156 85995 85863 85738 85569
758.8517 85317 84987 84634 84332 84127 84009 83918 83774 83529 83187 82803
764.1550 82440 82132 81870 81610 81313 80968 80606 80280 80034 79873 79755
769.4583 79605 79358 78994 78556 78131 77809 77641 77616 77670 77722 77705
774.7616 77599 77427 77243 77102 77031 77030 77075 77145 77237 77364 77544
780.0649 77778 78040 78287 78483 78621 78723 78831 78984 79197 79463 79761
785.3682 80065 80351 80595 80773 80874 80910 80925 80977 81113 81340 81623
790.6714 81900 82121 82275 82389 82510 82672 82884 83127 83380 83628 83867
795.9747 84100 84332 84568 84820 85108 85447 85832 86229 86588 86867 87053
801.2780 87164 87232 87283 87324 87354 87378 87413 87482 87587 87707 87806
806.5813 87855 87864 87872 87925 88047 88224 88414 88568 88654 88667 88618
811.8846 88533 88444 88386 88388 88455 88566 88673 88727 88705 88622 88523
817.1879 88460 88460 88509 88560 88558 88462 88266 87999 87705 87421 87160
822.4911 86901 86602 86218 85715 85087 84347 83525 82661 81809 81037 80431
827.7944 80087 80092 80501 81315 82463 83818 85224 86539 87675 88611 89373
833.0977 90008 90548 91005 91370 91634 91798 91878 91901 91898 91894 91903
838.4010 91926 91952 91959 91933 91868 91782 91702 91658 91665 91715 91781
843.7043 91834 91855 91843 91810 91773 91739 91708 91672 91630 91580 91528
849.0076 91478 91435 91408 91409 91449 91528 91629 91720 91768 91750 91670
854.3109 91551 91430 91339 91297 91302 91336 91372 91386 91365 91313 91244
859.6141 91173 91107 91045 90980 90915 90859 90825 90820 90841 90876 90910
864.9174 90929 90923 90883 90802 90681 90533 90390 90282 90235 90250 90310
870.2207 90381 90433 90441 90397 90311 90212 90137 90123 90181 90295 90422
875.5240 90514 90548 90532 90499 90486 90505 90544 90570 90555 90492 90392
880.8273 90280 90178 90099 90049 90022 90015 90016 90014 89994 89947 89869
886.1306 89770 89670 89597 89573 89608 89687 89778 89842 89851 89803 89722
891.4338 89644 89599 89600 89637 89697 89766 89842 89922 90001 90063 90090
896.7371 90073 90017 89936 89847 89757 89669 89584 89506 89443 89401 89381
902.0404 89378 89385 89397 89410 89418 89408 89366 89288 89187 89086 89016
907.3437 88995 89028 89104 89209 89329 89449 89552 89622 89644 89617 89556
912.6470 89485 89424 89382 89358 89344 89331 89317 89297 89264 89211 89134
917.9503 89041 88945 88862 88798 88752 88720 88700 88696 88707 88729 88749
923.2535 88757 88749 88731 88716 88713 88721 88729 88721 88681 88593 88454
928.5568 88271 88064 87863 87690 87551 87426 87279 87074 86790 86434 86035
933.8601 85631 85262 84967 84781 84736 84852 85132 85556 86081 86648 87191
939.1634 87660 88025 88284 88461 88593 88708 88818 88911 88968 88974 88934
944.4667 88869 88808 88770 88758 88759 88754 88729 88684 88629 88578 88541
949.7700 88519 88507 88492 88465 88419 88352 88272 88189 88120 88080 88080
955.0732 88121 88190 88261 88300 88282 88192 88043 87858 87671 87502 87361
960.3765 87244 87140 87043 86950 86860 86770 86674 86573 86467 86357 86235
965.6798 86080 85863 85566 85198 84807 84469 84264 84253 84452 84835 85338
970.9831 85880 86379 86775 87042 87183 87229 87218 87183 87144 87108 87076
976.2864 87045 87008 86959 86888 86797 86690 86583 86488 86412 86354 86308
981.5897 86274 86257 86264 86297 86348 86397 86424 86419 86383 86328 86274
986.8929 86236 86220 86220 86221 86204 86157 86079 85977 85862 85738 85598
992.1962 85427 85215 84969 84712 84481 84312 84227 84228 84301 84419 84555
997.4995 84685 84792 84867 84909 84928 84937 84954 84988 85037 85090 85129
1002.8028 85141 85121 85075 85012 84939 84858 84766 84660 84539 84411 84281
1008.1061 84158 84042 83927 83804 83660 83489 83292 83077 82855 82638 82430
1013.4094 82231 82037 81847 81667 81504 81357 81216 81056 80854 80596 80295
1018.7126 79977 79678 79417 79188 78968 78722 78422 78051 77607 77094 76521
1024.0160 75899 75237 74543 73817 73060 72284 71534 70900 70516 70537 71096
1029.3192 72263 74012 76216 78684 81197 83562 85636 87337 88638 89546 90088
1034.6226 90296 90216 89911 89473 89013 88646 88459 88492 88731 89115 89563
1039.9258 90001 90375 90659 90849 90949 90971 90932 90857 90775 90713 90682
1045.2291 90668 90645 90580 90457 90280 90075 89869 89682 89520 89376 89240
1050.5323 89106 88969 88831 88690 88549 88410 88280 88165 88071 88001 87955
1055.8357 87934 87937 87964 88015 88083 88159 88229 88279 88296 88279 88232
1061.1389 88163 88080 87986 87875 87746 87600 87449 87307 87184 87081 86989
1066.4423 86900 86806 86708 86607 86506 86409 86318 86237 86172 86127 86102
1071.7455 86094 86097 86106 86113 86109 86088 86049 85995 85938 85887 85841
1077.0488 85791 85723 85626 85503 85366 85228 85098 84971 84834 84673 84480
1082.3521 84260 84026 83797 83589 83411 83260 83127 83000 82872 82744 82629
1087.6554 82541 82491 82482 82505 82540 82570 82583 82586 82599 82647 82749
1092.9586 82906 83099 83298 83474 83613 83710 83770 83799 83794 83755 83685
1098.2620 83604 83534 83500 83509 83552 83607 83647 83656 83632 83586 83533
1103.5652 83488 83459 83449 83453 83462 83468 83462 83440 83407 83373 83355
1108.8685 83363 83400 83456 83512 83554 83573 83571 83555 83531 83500 83456
1114.1718 83391 83300 83184 83046 82886 82706 82507 82296 82079 81862 81646
1119.4751 81419 81168 80888 80586 80281 80002 79775 79625 79566 79614 79777
1124.7783 80061 80460 80957 81525 82134 82753 83355 83919 84430 84880 85268
1130.0817 85596 85867 86086 86257 86384 86472 86525 86545 86535 86496 86436
1135.3849 86361 86281 86198 86112 86017 85910 85792 85661 85517 85356 85177
1140.6882 84988 84801 84632 84491 84374 84264 84141 83993 83818 83629 83440
1145.9915 83257 83078 82888 82668 82405 82098 81761 81417 81094 80809 80572
1151.2948 80377 80220 80098 80022 80009 80074 80221 80439 80705 80993 81284
1156.5980 81566 81837 82101 82358 82607 82844 83063 83256 83418 83546 83639
1161.9014 83703 83745 83775 83800 83822 83838 83846 83843 83836 83830 83829
1167.2046 83831 83826 83805 83763 83703 83635 83569 83509 83453 83396 83335
1172.5079 83270 83206 83147 83095 83049 83008 82968 82926 82880 82834 82791
1177.8112 82755 82728 82704 82673 82624 82553 82463 82369 82285 82217 82164
1183.1145 82115 82056 81981 81891 81794 81701 81619 81545 81472 81395 81307
1188.4177 81208 81101 80986 80863 80731 80585 80424 80247 80053 79846 79629
1193.7211 79405 79176 78938 78682 78398 78076 77715 77318 76895 76455 76005
1199.0243 75549 75097 74670 74308 74071 74025 74229 74719 75493 76508 77687
1204.3276 78931 80144 81242 82170 82905 83449 83826 84068 84208 84277 84301
1209.6309 84299 84282 84252 84206 84140 84055 83959 83862 83774 83698 83633
1214.9342 83570 83500 83415 83313 83200 83085 82981 82899 82841 82802 82766
1220.2374 82719 82651 82561 82458 82352 82255 82171 82101 82043 81993 81945
1225.5408 81891 81825 81743 81645 81539 81436 81346 81279 81239 81227 81245
1230.8440 81290 81361 81456 81574 81716 81880 82063 82255 82443 82613 82754
1236.1473 82862 82939 82995 83037 83071 83096 83108 83102 83075 83033 82982
1241.4506 82932 82886 82846 82809 82773 82740 82711 82685 82660 82634 82606
1246.7539 82577 82550 82526 82505 82482 82457 82432 82413 82404 82404 82410
1252.0571 82416 82420 82426 82438 82464 82504 82556 82615 82679 82746 82819
1257.3605 82896 82974 83046 83106 83151 83186 83221 83267 83325 83385 83429
1262.6637 83442 83420 83374 83324 83287 83275 83286 83312 83337 83347 83332
1267.9670 83291 83234 83176 83134 83116 83123 83145 83173 83196 83214 83226
1273.2703 83234 83233 83218 83187 83144 83097 83053 83016 82983 82948 82907
1278.5736 82860 82808 82752 82691 82627 82561 82495 82433 82377 82324 82274
1283.8768 82224 82175 82128 82083 82039 81993 81941 81882 81817 81753 81695
1289.1802 81647 81609 81581 81560 81547 81543 81549 81561 81571 81570 81549
1294.4834 81508 81457 81410 81381 81375 81385 81398 81397 81375 81331 81273
1299.7867 81214 81164 81128 81106 81092 81080 81065 81047 81028 81010 80993
1305.0900 80973 80944 80906 80861 80815 80775 80743 80721 80705 80693 80683
1310.3933 80676 80667 80655 80634 80604 80565 80518 80466 80408 80344 80272
1315.6965 80194 80116 80045 79987 79947 79921 79901 79878 79847 79806 79762
1320.9999 79717 79671 79619 79557 79479 79391 79298 79206 79117 79026 78925
1326.3031 78809 78680 78546 78414 78289 78171 78053 77924 77780 77618 77441
1331.6064 77254 77057 76849 76627 76390 76139 75874 75595 75297 74976 74633
1336.9097 74279 73932 73622 73389 73291 73395 73742 74316 75051 75872 76725
1342.2130 77575 78387 79115 79713 80150 80425 80563 80599 80565 80486 80381
1347.5162 80263 80138 80010 79878 79739 79594 79448 79310 79184 79073 78978
1352.8196 78896 78827 78771 78728 78691 78655 78611 78559 78500 78440 78383
1358.1228 78327 78267 78196 78113 78020 77923 77830 77746 77666 77583 77488
1363.4261 77378 77256 77126 76990 76850 76708 76567 76429 76296 76165 76035
1368.7294 75905 75773 75636 75490 75332 75162 74982 74798 74613 74432 74255
1374.0327 74078 73896 73703 73495 73275 73043 72805 72563 72320 72079 71837
1379.3359 71594 71344 71084 70810 70521 70224 69928 69640 69362 69090 68814
1384.6393 68531 68239 67938 67629 67316 67005 66711 66441 66195 65965 65753
1389.9425 65564 65412 65307 65249 65228 65239 65290 65409 65646 66046 66592
1395.2458 67184 67715 68150 68521 68883 69302 69836 70496 71211 71870 72415
1400.5491 72873 73295 73721 74159 74601 75042 75497 76004 76594 77252 77906
1405.8524 78490 78988 79436 79874 80325 80786 81237 81658 82038 82376 82668
1411.1556 82905 83073 83163 83173 83112 82989 82811 82578 82283 81918 81486
1416.4590 81010 80518 80025 79512 78928 78249 77563 77029 76702 76527 76449
1421.7622 76454 76583 76929 77601 78627 79880 81166 82375 83502 84577 85606
1427.0656 86559 87395 88095 88675 89168 89597 89955 90220 90394 90504 90589
1432.3688 90675 90769 90865 90950 91017 91067 91103 91122 91117 91089 91061
1437.6721 91052 91060 91079 91102 91128 91155 91185 91214 91236 91242 91228
1442.9753 91195 91152 91109 91072 91043 91014 90980 90939 90894 90857 90837
1448.2787 90834 90832 90815 90778 90720 90649 90575 90508 90454 90410 90364
1453.5819 90308 90239 90159 90075 89996 89936 89902 89896 89907 89921 89932
1458.8853 89937 89935 89925 89907 89884 89856 89826 89796 89766 89741 89725
1464.1885 89721 89721 89712 89687 89653 89621 89599 89589 89584 89575 89550
1469.4918 89506 89440 89357 89256 89138 89009 88899 88842 88829 88826 88811
1474.7950 88776 88716 88633 88533 88428 88322 88210 88082 87934 87764 87575
1480.0984 87368 87148 86917 86678 86439 86210 85999 85817 85671 85570 85524
1485.4016 85555 85701 85999 86448 86975 87476 87889 88224 88533 88858 89176
1490.7050 89420 89563 89633 89669 89688 89694 89683 89649 89590 89507 89414
1496.0082 89334 89289 89276 89276 89268 89238 89179 89094 88996 88892 88792
1501.3115 88701 88626 88568 88524 88480 88428 88358 88261 88125 87932 87699
1506.6147 87549 87578 87694 87807 87883 87915 87907 87870 87817 87761 87711
1511.9181 87671 87636 87597 87547 87481 87399 87306 87206 87117 87059 87047
1517.2213 87055 87043 86997 86925 86837 86744 86661 86617 86650 86733 86784
1522.5247 86780 86743 86691 86636 86580 86529 86488 86457 86432 86405 86374
1527.8279 86340 86307 86275 86240 86195 86133 86050 85945 85818 85677 85535
1533.1312 85422 85363 85347 85336 85306 85248 85169 85074 84975 84877 84791
1538.4344 84726 84691 84681 84666 84630 84587 84544 84497 84437 84360 84270
1543.7378 84175 84088 84017 83965 83921 83870 83804 83721 83622 83513 83403
1549.0410 83308 83242 83205 83171 83117 83037 82938 82830 82722 82620 82526
1554.3444 82437 82341 82233 82110 81967 81791 81555 81221 80794 80566 80866
1559.6476 81193 81279 81216 81088 80934 80771 80607 80446 80298 80174 80085
1564.9509 80026 79972 79895 79785 79643 79478 79295 79101 78898 78687 78472
1570.2542 78250 78013 77753 77467 77157 76840 76533 76252 76011 75846 75870
1575.5575 76313 77337 78613 79607 80218 80599 80872 81077 81201 81222 81131
1580.8607 80948 80702 80422 80124 79814 79495 79168 78832 78489 78139 77785
1586.1641 77424 77050 76650 76206 75706 75145 74532 73890 73254 72666 72174
1591.4674 71827 71672 71748 72082 72677 73498 74462 75449 76350 77096 77666
1596.7706 78074 78339 78483 78527 78498 78422 78320 78205 78078 77935 77772
1602.0740 77591 77396 77193 76991 76793 76603 76421 76248 76084 75931 75788
1607.3772 75654 75527 75406 75292 75188 75094 75008 74927 74851 74785 74738
1612.6805 74717 74717 74724 74718 74690 74650 74644 74763 75077 75484 75809
1617.9838 76019 76174 76334 76529 76760 77004 77236 77448 77670 77972 78438
1623.2871 79070 79721 80231 80575 80817 81024 81249 81530 81889 82302 82701
1628.5903 83026 83270 83458 83622 83778 83923 84043 84122 84156 84156 84139
1633.8937 84126 84146 84223 84344 84425 84413 84337 84243 84152 84070 83995
1639.1969 83926 83859 83790 83715 83629 83527 83409 83277 83138 82993 82839
1644.5002 82668 82473 82256 82047 81904 81859 81860 81824 81720 81562 81373
1649.8035 81165 80947 80716 80472 80220 79990 79874 79902 79810 79558 79271
1655.1068 78993 78729 78475 78226 77980 77734 77485 77230 76965 76689 76409
1660.4100 76130 75862 75606 75367 75149 74957 74785 74621 74455 74278 74088
1665.7134 73882 73665 73438 73205 72973 72755 72581 72478 72437 72416 72387
1671.0166 72340 72275 72190 72081 71953 71820 71711 71686 71820 72107 72409
1676.3199 72613 72725 72798 72871 72975 73137 73380 73704 74064 74390 74630
1681.6232 74771 74822 74815 74840 75178 76235 77547 78267 78528 78638 78734
1686.9265 78864 79047 79290 79585 79906 80221 80507 80756 80970 81150 81294
1692.2297 81398 81459 81476 81452 81393 81321 81306 81488 81918 82410 82791
1697.5331 83039 83179 83243 83328 83826 85557 88341 90403 91421 91991 92474
1702.8363 93010 93641 94348 95065 95713 96260 96734 97167 97549 97851 98062
1708.1396 98200 98293 98367 98436 98502 98558 98593 98600 98573 98512 98419
1713.4429 98311 98219 98184 98221 98297 98364 98387 98358 98304 98295 98382
1718.7462 98519 98644 98733 98790 98819 98825 98811 98777 98725 98655 98576
1724.0494 98495 98419 98351 98290 98235 98189 98153 98123 98089 98040 97963
1729.3528 97853 97725 97607 97515 97443 97371 97276 97131 96919 96692 96593
1734.6560 96655 96763 96853 96917 96965 97007 97046 97085 97122 97154 97177
1739.9594 97190 97193 97190 97181 97163 97137 97104 97070 97037 97002 96958
1745.2626 96898 96822 96734 96641 96549 96462 96379 96297 96214 96132 96060
1750.5659 96015 96016 96065 96142 96220 96282 96327 96354 96370 96377 96386
1755.8691 96403 96435 96478 96516 96533 96521 96486 96437 96384 96330 96274
1761.1725 96205 96111 95992 95862 95735 95620 95518 95433 95365 95307 95249
1766.4757 95181 95103 95036 95016 95060 95152 95252 95332 95386 95420 95454
1771.7791 95517 95616 95712 95777 95809 95822 95824 95818 95801 95768 95718
1777.0823 95653 95580 95506 95434 95370 95316 95274 95246 95230 95219 95202
1782.3856 95170 95119 95050 94978 94927 94920 94959 95020 95075 95107 95115
1787.6888 95112 95117 95138 95176 95216 95243 95244 95218 95175 95132 95096
1792.9922 95059 95005 94931 94839 94737 94636 94546 94477 94428 94394 94372
1798.2954 94360 94358 94363 94367 94368 94371 94392 94442 94515 94594 94655
1803.5988 94690 94704 94712 94723 94740 94752 94745 94712 94659 94605 94564
1808.9020 94546 94548 94560 94573 94582 94588 94595 94601 94602 94590 94563
1814.2053 94525 94489 94464 94453 94451 94450 94445 94443 94451 94476 94512
1819.5085 94544 94559 94549 94520 94486 94459 94444 94438 94431 94412 94373
1824.8119 94311 94234 94160 94099 94052 94013 93974 93931 93891 93876 93913
1830.1151 94000 94100 94177 94215 94215 94187 94148 94116 94104 94114 94137
1835.4185 94161 94172 94164 94140 94109 94081 94059 94039 94011 93968 93911
1840.7217 93853 93810 93795 93811 93858 93922 93977 93988 93940 93861 93783
1846.0250 93725 93689 93673 93669 93668 93663 93656 93653 93660 93678 93703
1851.3282 93726 93742 93750 93756 93773 93804 93846 93884 93897 93866 93786
1856.6316 93668 93536 93418 93332 93278 93244 93209 93165 93122 93105 93137
1861.9348 93224 93349 93477 93574 93619 93617 93585 93543 93500 93461 93428
1867.2382 93408 93415 93451 93492 93496 93434 93321 93196 93098 93045 93035
1872.5414 93049 93063 93061 93043 93022 93011 93014 93023 93026 93014 92985
1877.8447 92952 92931 92945 93008 93118 93258 93394 93486 93506 93446 93327
1883.1479 93186 93066 92998 92991 93030 93086 93128 93139 93116 93065 93001
1888.4513 92937 92891 92871 92877 92891 92893 92871 92823 92763 92717 92712
1893.7545 92761 92853 92947 92996 92975 92891 92781 92679 92598 92533 92471
1899.0579 92406 92354 92336 92370 92445 92524 92558 92514 92394 92240 92115
1904.3611 92073 92131 92265 92415 92516 92525 92438 92294 92158 92086 92103
1909.6644 92188 92293 92372 92407 92408 92399 92395 92403 92415 92427 92436
1914.9677 92446 92465 92497 92548 92620 92704 92772 92786 92725 92602 92449
1920.2710 92303 92192 92130 92121 92155 92216 92294 92387 92494 92602 92684
1925.5742 92710 92654 92520 92342 92178 92078 92068 92139 92254 92366 92434
1930.8776 92441 92389 92301 92208 92137 92107 92120 92157 92193 92195 92144
1936.1808 92030 91869 91699 91579 91572 91718 92006 92372 92714 92934 92969
1941.4841 92811 92518 92198 91951 91812 91759 91755 91782 91829 91882 91920
1946.7874 91928 91919 91924 91974 92068 92173 92245 92267 92260 92265 92311
1952.0907 92387 92458 92489 92485 92480 92517 92608 92720 92786 92740 92541
1957.3939 92187 91712 91184 90698 90358 90242 90368 90672 91033 91337 91537
1962.6973 91673 91838 92108 92488 92911 93277 93505 93562 93458 93221 92875
1968.0005 92449 92005 91646 91496 91639 92065 92652 93203 93535 93550 93254
1973.3038 92722 92061 91379 90768 90297 89998 89857 89829 89859 89919 90013
1978.6071 90171 90411 90723 91079 91448 91806 92125 92362 92457 92361 92080
1983.9104 91696 91354 91200 91308 91639 92062 92412 92577 92548 92417 92307
1989.2136 92286 92334 92369 92300 92079 91747 91422 91233 91234 91390 91613
1994.5170 91807 91896 91846 91676 91454 91268 91194 91259 91439 91670 91883
1999.8202 92038 92134 92202 92269 92351 92454 92593 92793 93070 93392 93662
2005.1235 93750 93564 93125 92578 92107 91818 91666 91504 91212 90806 90458
2010.4268 90399 90781 91582 92591 93505 94061 94161 93886 93428 92977 92651
2015.7301 92484 92457 92542 92717 92954 93204 93402 93503 93518 93513 93560
2021.0333 93671 93768 93723 93447 92969 92435 92028 91873 91975 92230 92489
2026.3367 92632 92616 92468 92262 92077 91971 91962 92026 92106 92143 92100
2031.6399 91976 91790 91561 91303 91043 90840 90785 90952 91341 91846 92288
2036.9432 92490 92376 92020 91616 91371 91405 91691 92075 92371 92468 92387
2042.2465 92243 92151 92154 92210 92246 92217 92132 92030 91936 91839 91718
2047.5498 91580 91469 91447 91541 91717 91897 92013 92047 92031 92017 92043
2052.8530 92118 92227 92338 92418 92448 92419 92336 92215 92071 91922 91786
2058.1563 91678 91620 91630 91719 91876 92069 92258 92405 92489 92503 92442
2063.4597 92301 92079 91786 91449 91105 90782 90503 90291 90176 90190 90344
2068.7629 90602 90881 91085 91154 91102 91003 90952 91007 91158 91339 91471
2074.0662 91505 91450 91359 91296 91299 91356 91418 91428 91353 91209 91055
2079.3694 90962 90976 91096 91272 91438 91538 91551 91487 91374 91239 91103
2084.6729 90981 90894 90859 90889 90976 91094 91210 91297 91345 91356 91346
2089.9761 91328 91314 91308 91307 91301 91273 91209 91115 91019 90967 90998
2095.2793 91115 91278 91423 91493 91477 91408 91340 91313 91327 91350 91338
2100.5825 91271 91162 91043 90948 90894 90876 90886 90917 90973 91054 91145
2105.8860 91214 91225 91166 91060 90957 90903 90910 90956 90997 91008 91000
2111.1892 91004 91045 91116 91180 91200 91168 91109 91061 91044 91046 91036
2116.4924 90996 90937 90897 90904 90958 91024 91057 91027 90944 90842 90757
2121.7957 90707 90690 90697 90729 90798 90905 91031 91126 91137 91036 90851
2127.0991 90652 90519 90497 90576 90703 90821 90900 90950 91001 91071 91153
2132.4023 91212 91212 91138 91007 90862 90760 90739 90804 90914 90996 90980
2137.7056 90841 90616 90393 90267 90289 90439 90647 90835 90950 90981 90945
2143.0088 90864 90761 90663 90596 90584 90624 90688 90734 90732 90678 90579
2148.3123 90437 90237 89972 89681 89461 89442 89715 90275 91006 91720 92234
2153.6155 92436 92314 91940 91440 90950 90594 90456 90562 90862 91227 91477
2158.9187 91452 91098 90503 89861 89400 89300 89632 90325 91169 91883 92222
2164.2219 92087 91554 90828 90140 89667 89487 89587 89884 90268 90624 90866
2169.5254 90955 90904 90759 90571 90370 90168 89971 89804 89705 89703 89796
2174.8286 89939 90073 90158 90197 90226 90287 90387 90492 90547 90504 90357
2180.1318 90152 89972 89902 89989 90215 90503 90758 90911 90950 90915 90864
2185.4351 90836 90829 90815 90769 90695 90621 90577 90567 90564 90533 90459
2190.7385 90370 90319 90352 90473 90642 90796 90887 90897 90841 90731 90566
2196.0417 90332 90039 89740 89527 89490 89660 89983 90337 90587 90662 90577
2201.3450 90418 90277 90200 90166 90123 90043 89948 89903 89971 90164 90427
2206.6482 90668 90806 90816 90729 90602 90480 90376 90276 90170 90066 89997
2211.9517 89993 90069 90207 90366 90494 90553 90526 90425 90282 90140 90035
2217.2549 89987 90000 90059 90149 90256 90373 90492 90600 90675 90686 90605
2222.5581 90418 90134 89795 89468 89236 89167 89282 89536 89831 90048 90107
2227.8613 90005 89811 89631 89547 89588 89724 89900 90064 90191 90280 90341
2233.1648 90378 90390 90375 90343 90317 90322 90372 90453 90520 90514 90394
2238.4680 90162 89875 89625 89493 89510 89647 89834 89999 90104 90147 90148
2243.7712 90129 90101 90072 90054 90060 90097 90148 90184 90180 90128 90044
2249.0745 89953 89869 89792 89714 89635 89569 89541 89561 89620 89691 89748
2254.3779 89783 89810 89849 89911 89986 90046 90065 90027 89940 89832 89733
2259.6812 89667 89640 89638 89639 89625 89592 89556 89542 89569 89633 89714
2264.9844 89783 89821 89826 89808 89780 89752 89732 89727 89744 89786 89838
2270.2876 89878 89884 89850 89793 89739 89709 89702 89701 89687 89648 89587
2275.5911 89509 89416 89311 89208 89141 89151 89263 89460 89683 89851 89904
2280.8943 89836 89701 89586 89563 89657 89833 90013 90120 90107 89979 89781
2286.1975 89581 89433 89367 89380 89450 89541 89621 89670 89683 89671 89658
2291.5007 89668 89716 89799 89898 89983 90027 90019 89966 89887 89805 89738
2296.8042 89692 89667 89657 89656 89660 89665 89667 89662 89651 89641 89644
2302.1074 89672 89725 89791 89849 89877 89865 89820 89765 89727 89722 89752
2307.4106 89799 89842 89862 89850 89813 89764 89721 89698 89701 89728 89769
2312.7139 89807 89828 89820 89785 89734 89691 89674 89692 89734 89770 89769
2318.0173 89722 89646 89579 89556 89580 89622 89639 89606 89533 89462 89434
2323.3206 89469 89555 89666 89778 89883 89981 90065 90120 90124 90068 89966
2328.6238 89852 89765 89730 89745 89781 89804 89792 89751 89713 89722 89807
2333.9270 89968 90175 90376 90519 90565 90504 90359 90179 90015 89909 89881
2339.2305 89925 90010 90089 90118 90087 90030 90002 90044 90152 90277 90357
2344.5337 90367 90330 90299 90301 90314 90292 90202 90054 89886 89745 89668
2349.8369 89673 89747 89848 89924 89942 89917 89889 89892 89930 89983 90023
2355.1401 90037 90026 89994 89943 89873 89790 89713 89661 89640 89638 89631
2360.4436 89600 89543 89474 89418 89403 89452 89576 89772 90015 90258 90447
2365.7468 90543 90534 90438 90292 90133 89983 89849 89734 89647 89595 89586
2371.0500 89614 89666 89725 89781 89830 89875 89912 89930 89915 89862 89777
2376.3533 89681 89599 89553 89548 89580 89632 89687 89732 89758 89764 89753
2381.6567 89731 89704 89675 89651 89635 89631 89635 89640 89634 89608 89565
2386.9600 89514 89473 89455 89463 89490 89520 89542 89548 89540 89520 89495
2392.2632 89470 89453 89452 89469 89499 89531 89552 89555 89539 89515 89493
2397.5664 89481 89478 89480 89480 89474 89463 89452 89452 89469 89507 89562
2402.8699 89621 89669 89693 89688 89658 89614 89572 89543 89533 89541 89554
2408.1731 89559 89547 89516 89473 89431 89398 89378 89370 89375 89394 89431
2413.4763 89482 89535 89574 89588 89583 89569 89562 89565 89566 89551 89511
2418.7795 89455 89405 89384 89400 89444 89495 89533 89550 89550 89542 89534
2424.0830 89526 89513 89496 89481 89476 89489 89514 89538 89546 89531 89500
2429.3862 89468 89449 89447 89458 89471 89480 89484 89484 89482 89479 89476
2434.6895 89478 89487 89505 89531 89561 89590 89613 89628 89630 89614 89575
2439.9927 89515 89444 89377 89325 89296 89287 89293 89308 89328 89347 89360
2445.2961 89363 89354 89336 89313 89293 89278 89270 89268 89271 89280 89294
2450.5994 89311 89325 89333 89334 89332 89329 89329 89328 89319 89297 89263
2455.9026 89226 89196 89186 89199 89232 89275 89319 89357 89387 89409 89425
2461.2058 89436 89442 89442 89432 89410 89371 89314 89241 89164 89102 89071
2466.5093 89083 89131 89195 89249 89270 89252 89210 89168 89151 89168 89217
2471.8125 89283 89348 89402 89438 89458 89465 89463 89453 89440 89424 89406
2477.1157 89384 89355 89320 89284 89253 89234 89229 89232 89236 89229 89209
2482.4189 89182 89162 89165 89200 89264 89338 89398 89427 89419 89386 89345
2487.7224 89314 89296 89287 89277 89258 89229 89196 89170 89159 89171 89205
2493.0256 89253 89304 89346 89373 89382 89377 89362 89343 89321 89297 89269
2498.3289 89236 89200 89166 89143 89138 89151 89170 89180 89170 89140 89104
2503.6321 89076 89067 89072 89078 89079 89076 89077 89087 89098 89101 89089
2508.9355 89073 89079 89125 89211 89310 89381 89392 89340 89249 89157 89093
2514.2388 89064 89056 89046 89020 88979 88938 88917 88920 88941 88963 88970
2519.5420 88964 88959 88973 89015 89079 89140 89176 89176 89151 89124 89115
2524.8452 89133 89166 89193 89196 89170 89130 89098 89091 89111 89146 89176
2530.1487 89186 89172 89143 89109 89080 89060 89052 89060 89089 89139 89201
2535.4519 89260 89296 89297 89264 89207 89144 89091 89056 89038 89029 89024
2540.7551 89023 89031 89060 89112 89180 89242 89275 89267 89221 89155 89097
2546.0583 89065 89063 89083 89110 89130 89134 89121 89097 89069 89050 89048
2551.3618 89067 89101 89141 89174 89191 89192 89179 89156 89129 89107 89101
2556.6650 89119 89163 89222 89275 89303 89292 89246 89180 89112 89053 89008
2561.9683 88978 88964 88968 88992 89034 89089 89145 89194 89227 89241 89236
2567.2715 89213 89178 89140 89108 89088 89082 89084 89085 89078 89064 89049
2572.5750 89041 89043 89050 89049 89036 89013 88991 88985 89001 89033 89065
2577.8782 89081 89072 89044 89013 88995 89000 89026 89055 89068 89048 88996
2583.1814 88930 88882 88877 88923 89003 89086 89146 89171 89169 89158 89146
2588.4849 89128 89095 89043 88983 88935 88916 88927 88953 88976 88981 88970
2593.7881 88956 88951 88959 88974 88986 88987 88977 88959 88935 88907 88874
2599.0913 88836 88799 88769 88755 88762 88787 88823 88857 88880 88890 88891
2604.3945 88890 88893 88899 88902 88899 88887 88870 88856 88852 88859 88871
2609.6980 88881 88883 88874 88857 88836 88815 88794 88776 88762 88760 88776
2615.0012 88812 88858 88900 88919 88909 88877 88843 88828 88838 88867 88894
2620.3044 88903 88893 88874 88864 88868 88883 88891 88880 88850 88811 88783
2625.6077 88778 88795 88823 88848 88860 88861 88859 88865 88882 88904 88919
2630.9111 88914 88889 88850 88812 88785 88777 88783 88795 88805 88808 88804
2636.2144 88797 88791 88787 88787 88793 88806 88827 88855 88884 88903 88903
2641.5176 88881 88842 88799 88767 88755 88760 88772 88777 88768 88745 88719
2646.8208 88700 88694 88698 88705 88709 88707 88705 88708 88716 88724 88726
2652.1243 88714 88689 88656 88625 88605 88599 88603 88610 88613 88610 88602
2657.4275 88596 88599 88615 88640 88667 88686 88693 88689 88683 88682 88688
2662.7307 88697 88703 88699 88685 88663 88639 88614 88588 88563 88542 88530
2668.0339 88535 88556 88590 88627 88653 88662 88652 88630 88606 88590 88586
2673.3374 88593 88604 88609 88606 88595 88579 88564 88550 88537 88522 88507
2678.6406 88491 88478 88468 88458 88446 88433 88419 88407 88399 88397 88400
2683.9438 88410 88424 88442 88457 88466 88465 88454 88439 88423 88411 88404
2689.2471 88400 88398 88395 88392 88389 88386 88386 88388 88392 88395 88392
2694.5505 88380 88358 88330 88302 88282 88273 88275 88284 88296 88311 88326
2699.8538 88339 88344 88337 88315 88281 88243 88210 88189 88181 88184 88193
2705.1570 88202 88208 88209 88203 88192 88179 88165 88154 88149 88146 88143
2710.4602 88136 88125 88111 88096 88083 88073 88063 88051 88037 88023 88010
2715.7637 88000 87993 87985 87976 87965 87956 87951 87952 87954 87954 87949
2721.0669 87939 87928 87919 87916 87914 87908 87893 87870 87844 87826 87822
2726.3701 87837 87864 87895 87918 87927 87922 87910 87897 87889 87886 87886
2731.6733 87886 87886 87889 87898 87910 87922 87929 87928 87923 87919 87917
2736.9768 87919 87921 87918 87910 87902 87897 87899 87906 87913 87911 87897
2742.2800 87874 87849 87829 87822 87828 87843 87860 87872 87877 87873 87864
2747.5833 87850 87834 87813 87789 87765 87744 87731 87728 87729 87727 87714
2752.8865 87686 87648 87609 87581 87569 87575 87590 87605 87612 87607 87590
2758.1899 87567 87544 87525 87512 87504 87496 87484 87466 87444 87421 87405
2763.4932 87399 87404 87416 87426 87429 87421 87403 87378 87354 87334 87324
2768.7964 87321 87325 87331 87336 87338 87338 87339 87346 87358 87373 87381
2774.0996 87373 87346 87304 87258 87226 87219 87238 87275 87311 87329 87323
2779.4031 87295 87257 87220 87188 87163 87141 87123 87114 87117 87135 87166
2784.7063 87199 87228 87244 87245 87236 87221 87211 87216 87242 87288 87345
2790.0095 87400 87441 87467 87483 87500 87530 87574 87628 87686 87743 87795
2795.3127 87842 87879 87900 87900 87880 87850 87824 87817 87837 87880 87937
2800.6162 87993 88036 88059 88063 88057 88054 88065 88093 88130 88161 88169
2805.9194 88148 88103 88053 88015 88002 88013 88038 88067 88095 88119 88145
2811.2227 88174 88205 88234 88256 88264 88257 88235 88199 88155 88108 88066
2816.5259 88034 88016 88013 88026 88052 88083 88110 88126 88127 88118 88106
2821.8293 88099 88102 88114 88131 88148 88164 88178 88185 88182 88166 88134
2827.1326 88094 88053 88022 88007 88007 88018 88034 88048 88058 88063 88065
2832.4358 88064 88065 88071 88088 88117 88154 88193 88226 88247 88254 88249
2837.7390 88236 88218 88199 88179 88159 88139 88120 88101 88085 88072 88063
2843.0425 88061 88067 88084 88113 88151 88191 88223 88239 88236 88215 88184
2848.3457 88153 88129 88113 88102 88096 88094 88099 88111 88126 88137 88138
2853.6489 88127 88109 88091 88077 88070 88066 88063 88064 88071 88083 88097
2858.9521 88104 88099 88083 88063 88047 88038 88032 88022 88003 87978 87953
2864.2556 87939 87940 87954 87972 87984 87985 87975 87960 87948 87942 87942
2869.5588 87942 87936 87921 87902 87888 87887 87898 87915 87926 87925 87909
2874.8621 87885 87860 87843 87832 87826 87820 87808 87790 87764 87731 87695
2880.1653 87663 87643 87642 87661 87693 87729 87757 87772 87773 87765 87755
2885.4688 87748 87742 87738 87734 87729 87724 87719 87715 87712 87708 87704
2890.7720 87702 87701 87699 87691 87674 87650 87626 87613 87619 87642 87672
2896.0752 87693 87695 87676 87646 87621 87610 87615 87630 87646 87658 87662
2901.3784 87659 87647 87625 87596 87566 87544 87537 87543 87554 87555 87537
2906.6819 87498 87449 87407 87388 87397 87427 87462 87485 87487 87469 87440
2911.9851 87413 87396 87391 87395 87408 87428 87454 87482 87501 87503 87481
2917.2883 87437 87378 87317 87263 87222 87194 87177 87166 87159 87158 87160
2922.5916 87167 87175 87182 87188 87191 87192 87193 87189 87178 87158 87129
2927.8950 87101 87084 87088 87115 87157 87199 87227 87231 87213 87181 87149
2933.1982 87123 87106 87088 87064 87031 86993 86961 86942 86936 86939 86944
2938.5015 86946 86944 86940 86939 86941 86946 86951 86954 86952 86944 86931
2943.8047 86918 86914 86928 86958 86997 87026 87028 86994 86929 86848 86770
2949.1082 86710 86677 86668 86671 86677 86676 86666 86648 86630 86617 86614
2954.4114 86623 86642 86665 86685 86696 86693 86676 86650 86620 86592 86569
2959.7146 86552 86538 86526 86513 86497 86477 86456 86434 86415 86402 86396
2965.0178 86394 86390 86381 86365 86343 86319 86294 86270 86242 86208 86170
2970.3213 86134 86109 86101 86114 86140 86171 86196 86208 86205 86187 86159
2975.6245 86126 86092 86058 86024 85989 85951 85912 85877 85849 85834 85833
2980.9277 85841 85853 85862 85863 85853 85833 85806 85778 85756 85745 85745
2986.2310 85753 85763 85769 85767 85762 85762 85771 85789 85806 85811 85798
2991.5344 85768 85730 85695 85667 85644 85620 85590 85556 85522 85497 85482
2996.8376 85475 85473 85475 85477 85481 85482 85477 85459 85428 85384 85333
3002.1409 85278 85226 85179 85142 85119 85113 85124 85149 85181 85208 85220
3007.4441 85211 85181 85134 85076 85013 84950 84896 84859 84849 84872 84920
3012.7476 84979 85027 85049 85035 84990 84924 84852 84789 84750 84744 84774
3018.0508 84828 84888 84931 84940 84916 84871 84825 84792 84776 84772 84771
3023.3540 84766 84756 84744 84728 84708 84680 84646 84608 84575 84548 84527
3028.6572 84505 84476 84435 84389 84351 84336 84356 84408 84481 84551 84597
3033.9607 84603 84569 84509 84445 84395 84368 84360 84359 84353 84339 84321
3039.2639 84310 84312 84327 84340 84333 84294 84227 84149 84086 84058 84065
3044.5671 84091 84110 84105 84075 84032 83990 83958 83932 83908 83884 83866
3049.8704 83865 83881 83904 83916 83903 83862 83806 83749 83703 83667 83635
3055.1738 83600 83565 83538 83528 83537 83554 83564 83555 83525 83484 83450
3060.4771 83442 83468 83521 83586 83640 83665 83655 83619 83576 83547 83547
3065.7803 83580 83637 83702 83757 83789 83795 83779 83753 83729 83717 83720
3071.0835 83735 83755 83774 83788 83796 83798 83788 83765 83728 83684 83645
3076.3870 83624 83627 83650 83679 83698 83696 83673 83638 83603 83576 83558
3081.6902 83546 83535 83524 83516 83512 83511 83508 83496 83474 83444 83414
3086.9934 83391 83374 83356 83327 83282 83225 83167 83122 83098 83090 83090
3092.2966 83084 83068 83043 83020 83009 83017 83045 83082 83119 83141 83142
3097.6001 83119 83076 83020 82961 82908 82868 82842 82829 82823 82818 82807
3102.9033 82788 82759 82719 82672 82623 82575 82537 82515 82517 82542 82584
3108.2065 82627 82650 82639 82588 82509 82426 82360 82325 82319 82326 82324
3113.5098 82299 82243 82165 82078 82000 81944 81916 81915 81933 81960 81984
3118.8132 81992 81975 81933 81874 81814 81768 81743 81738 81737 81730 81707
3124.1165 81675 81640 81611 81587 81565 81538 81508 81475 81444 81416 81389
3129.4197 81362 81336 81314 81294 81274 81250 81218 81181 81143 81112 81090
3134.7229 81079 81074 81069 81060 81043 81019 80993 80971 80959 80961 80969
3140.0264 80975 80967 80940 80898 80852 80818 80802 80805 80816 80823 80821
3145.3296 80814 80812 80825 80854 80894 80932 80957 80964 80956 80938 80915
3150.6328 80889 80862 80838 80827 80838 80877 80945 81032 81123 81204 81268
3155.9360 81317 81356 81392 81428 81461 81487 81507 81527 81556 81601 81661
3161.2395 81727 81787 81829 81845 81838 81814 81788 81776 81795 81852 81943
3166.5427 82054 82163 82251 82307 82334 82343 82342 82341 82341 82346 82363
3171.8459 82403 82471 82569 82684 82796 82889 82955 83001 83041 83088 83146
3177.1492 83205 83252 83276 83275 83263 83256 83272 83318 83394 83487 83584
3182.4526 83668 83730 83770 83800 83835 83888 83962 84045 84118 84166 84183
3187.7559 84176 84162 84157 84173 84212 84272 84341 84410 84468 84512 84542
3193.0591 84568 84597 84634 84677 84718 84752 84778 84801 84827 84853 84873
3198.3623 84879 84876 84879 84906 84963 85043 85121 85172 85183 85161 85124
3203.6658 85091 85074 85073 85084 85100 85120 85148 85186 85235 85292 85352
3208.9690 85403 85440 85457 85458 85452 85447 85450 85457 85463 85464 85462
3214.2722 85466 85483 85515 85558 85600 85635 85659 85677 85692 85709 85728
3219.5754 85747 85762 85774 85779 85776 85765 85749 85733 85722 85718 85719
3224.8789 85725 85739 85767 85813 85875 85939 85986 86005 85994 85968 85944
3230.1821 85933 85933 85937 85938 85935 85933 85939 85955 85980 86009 86040
3235.4854 86069 86090 86098 86089 86070 86052 86052 86075 86118 86168 86211
3240.7886 86240 86254 86255 86247 86228 86203 86177 86163 86170 86198 86240
3246.0920 86281 86310 86320 86311 86288 86254 86217 86186 86170 86180 86216
3251.3953 86273 86335 86389 86422 86436 86441 86447 86458 86464 86452 86409
3256.6985 86340 86262 86200 86170 86171 86185 86189 86170 86131 86088 86062
3262.0017 86067 86100 86149 86194 86224 86233 86225 86209 86189 86168 86144
3267.3052 86115 86083 86052 86024 86002 85984 85969 85957 85947 85937 85924
3272.6084 85905 85878 85850 85828 85815 85810 85802 85784 85754 85720 85693
3277.9116 85678 85666 85644 85598 85532 85461 85408 85387 85399 85428 85459
3283.2148 85484 85503 85525 85551 85572 85573 85543 85485 85417 85362 85339
3288.5183 85350 85386 85430 85468 85492 85497 85479 85435 85371 85295 85222
3293.8215 85162 85118 85086 85057 85024 84992 84969 84962 84973 84993 85010
3299.1248 85017 85014 85014 85029 85066 85118 85164 85178 85141 85050 84924
3304.4280 84792 84681 84608 84576 84574 84592 84617 84638 84649 84642 84620
3309.7314 84589 84563 84551 84555 84563 84559 84531 84482 84426 84383 84367
3315.0347 84375 84395 84410 84407 84380 84335 84278 84220 84165 84115 84070
3320.3379 84030 83995 83964 83938 83919 83904 83889 83866 83831 83781 83720
3325.6411 83654 83590 83531 83478 83427 83378 83330 83285 83241 83193 83134
3330.9446 83057 82964 82862 82765 82685 82627 82588 82562 82538 82512 82481
3336.2478 82444 82399 82342 82274 82202 82135 82085 82060 82057 82061 82055
3341.5510 82021 81955 81866 81774 81702 81666 81665 81687 81710 81719 81707
3346.8542 81680 81653 81633 81624 81619 81613 81599 81577 81553 81527 81501
3352.1577 81471 81439 81407 81385 81381 81398 81431 81468 81494 81504 81503
3357.4609 81506 81531 81588 81674 81778 81884 81982 82066 82142 82217 82298
3362.7642 82390 82496 82618 82759 82920 83096 83276 83448 83603 83741 83872
3368.0674 84009 84164 84341 84537 84746 84962 85184 85406 85626 85836 86029
3373.3708 86204 86366 86526 86696 86882 87090 87320 87569 87831 88093 88340
3378.6741 88559 88748 88917 89081 89256 89446 89641 89826 89991 90133 90256
3383.9773 90371 90486 90605 90726 90848 90970 91092 91216 91343 91471 91594
3389.2805 91704 91795 91865 91924 91985 92061 92156 92266 92380 92489 92585
3394.5840 92665 92729 92773 92800 92820 92848 92897 92969 93056 93141 93205
3399.8872 93240 93244 93229 93209 93196 93197 93213 93237 93264 93292 93328
3405.1904 93380 93455 93547 93637 93704 93739 93747 93749 93763 93793 93825
3410.4937 93838 93816 93767 93711 93678 93685 93729 93795 93860 93904 93921
3415.7971 93915 93896 93879 93872 93876 93886 93891 93887 93872 93854 93840
3421.1003 93836 93839 93845 93851 93860 93874 93895 93917 93931 93929 93909
3426.4036 93881 93861 93861 93885 93928 93975 94013 94034 94035 94023 94003
3431.7068 93981 93960 93939 93915 93883 93842 93794 93749 93718 93710 93726
3437.0103 93758 93792 93815 93821 93811 93791 93773 93765 93769 93783 93798
3442.3135 93805 93796 93774 93747 93728 93725 93742 93773 93808 93830 93829
3447.6167 93803 93761 93715 93677 93654 93648 93654 93666 93679 93686 93687
3452.9199 93679 93664 93645 93626 93612 93604 93598 93590 93580 93572 93575
3458.2234 93596 93634 93682 93729 93762 93772 93758 93720 93667 93614 93573
3463.5266 93551 93543 93540 93527 93498 93456 93409 93367 93335 93317 93317
3468.8298 93339 93383 93441 93495 93526 93519 93473 93401 93321 93252 93209
3474.1331 93202 93232 93290 93357 93408 93422 93390 93324 93246 93181 93145
3479.4365 93139 93155 93182 93211 93240 93266 93287 93300 93306 93306 93302
3484.7397 93291 93269 93232 93182 93133 93101 93099 93127 93168 93198 93199
3490.0430 93163 93099 93028 92975 92955 92973 93012 93048 93059 93035 92988
3495.3462 92941 92919 92932 92971 93020 93065 93099 93120 93125 93106 93058
3500.6497 92984 92901 92835 92805 92815 92848 92878 92886 92869 92840 92809
3505.9529 92784 92767 92756 92755 92768 92802 92855 92912 92951 92951 92906
3511.2561 92829 92741 92670 92639 92657 92718 92799 92874 92920 92924 92885
3516.5593 92815 92737 92675 92651 92674 92734 92805 92853 92853 92793 92684
3521.8628 92557 92446 92381 92365 92379 92400 92416 92431 92459 92508 92571
3527.1660 92628 92658 92649 92607 92553 92509 92488 92494 92520 92557 92592
3532.4692 92613 92610 92576 92515 92438 92366 92321 92317 92350 92403 92455
3537.7725 92492 92513 92517 92506 92478 92438 92392 92353 92330 92326 92337
3543.0759 92349 92353 92346 92332 92324 92332 92361 92410 92469 92521 92544
3548.3792 92524 92457 92361 92265 92204 92208 92281 92398 92510 92574 92575
3553.6824 92528 92459 92390 92333 92290 92258 92232 92208 92182 92160 92149
3558.9856 92158 92190 92232 92267 92278 92263 92232 92203 92186 92182 92183
3564.2891 92177 92159 92135 92117 92122 92157 92213 92268 92299 92298 92267
3569.5923 92214 92158 92114 92097 92112 92148 92188 92212 92210 92183 92145
3574.8955 92112 92096 92098 92109 92117 92112 92090 92056 92021 91995 91981
3580.1990 91979 91987 92000 92014 92026 92028 92014 91981 91932 91872 91810
3585.5022 91751 91703 91673 91668 91691 91738 91798 91858 91911 91952 91981
3590.8054 92001 92018 92036 92062 92097 92136 92164 92159 92102 91994 91858
3596.1086 91728 91636 91591 91589 91612 91644 91676 91711 91757 91817 91887
3601.4121 91950 91991 92002 91983 91943 91895 91851 91819 91800 91786 91767
3606.7153 91736 91695 91665 91666 91705 91766 91820 91851 91857 91849 91833
3612.0186 91813 91784 91749 91725 91733 91782 91862 91944 91996 91991 91916
3617.3218 91783 91627 91504 91466 91519 91622 91717 91770 91776 91749 91707
3622.6252 91669 91645 91640 91654 91681 91715 91749 91773 91778 91760 91728
3627.9285 91711 91762 91893 92014 92044 91984 91865 91721 91579 91475 91444
3633.2317 91507 91641 91791 91904 91957 91956 91912 91836 91739 91635 91540
3638.5349 91470 91427 91406 91397 91390 91385 91391 91417 91462 91512 91548
3643.8384 91556 91537 91502 91473 91476 91526 91610 91670 91638 91494 91278
3649.1416 91072 90985 91078 91289 91487 91596 91615 91574 91505 91431 91369
3654.4448 91332 91330 91370 91443 91521 91575 91602 91612 91616 91623 91635
3659.7480 91652 91667 91676 91671 91645 91593 91518 91430 91349 91295 91277
3665.0515 91288 91312 91329 91328 91310 91285 91270 91281 91328 91407 91486
3670.3547 91521 91491 91411 91305 91186 91056 90916 90780 90705 90834 91257
3675.6580 91722 91956 91975 91873 91707 91515 91330 91194 91132 91140 91193
3680.9612 91263 91338 91412 91478 91527 91551 91541 91502 91440 91367 91293
3686.2646 91231 91202 91236 91348 91495 91592 91590 91508 91392 91289 91224
3691.5679 91195 91186 91188 91201 91232 91282 91341 91395 91435 91467 91505
3696.8711 91560 91624 91671 91671 91607 91482 91319 91154 91036 91010 91082
3702.1743 91203 91311 91379 91411 91424 91434 91446 91457 91459 91449 91435
3707.4778 91432 91450 91479 91489 91439 91319 91164 91043 91036 91165 91348
3712.7810 91474 91504 91465 91398 91339 91305 91295 91291 91280 91262 91249
3718.0842 91259 91294 91334 91355 91342 91300 91243 91191 91156 91139 91130
3723.3875 91123 91122 91132 91158 91199 91251 91311 91375 91438 91485 91499
3728.6909 91469 91397 91298 91196 91116 91079 91077 91079 91057 91015 90976
3733.9941 90973 91027 91127 91223 91273 91288 91297 91316 91339 91354 91353
3739.2974 91336 91308 91270 91219 91151 91064 90965 90867 90799 90816 90965
3744.6006 91153 91231 91207 91149 91096 91066 91074 91128 91227 91338 91412
3749.9041 91434 91434 91450 91497 91543 91529 91440 91311 91184 91088 91044
3755.2073 91061 91131 91211 91250 91226 91155 91081 91051 91097 91196 91286
3760.5105 91321 91301 91254 91203 91163 91136 91114 91094 91081 91088 91123
3765.8137 91170 91196 91180 91120 91031 90941 90888 90912 91013 91135 91214
3771.1172 91233 91209 91167 91124 91086 91057 91035 91025 91031 91048 91068
3776.4204 91072 91050 91005 90961 90958 91028 91164 91307 91397 91413 91368
3781.7236 91288 91198 91120 91070 91057 91075 91110 91143 91162 91166 91163
3787.0269 91160 91163 91177 91202 91234 91266 91288 91292 91277 91252 91227
3792.3303 91212 91204 91193 91165 91116 91048 90976 90919 90897 90910 90938
3797.6335 90962 90971 90960 90928 90879 90830 90823 90915 91095 91260 91337
3802.9368 91329 91270 91190 91111 91048 91020 91040 91107 91184 91219 91200
3808.2400 91148 91090 91044 91021 91027 91060 91107 91149 91165 91146 91097
3813.5435 91038 90996 91005 91090 91235 91356 91379 91316 91218 91111 90997
3818.8467 90871 90736 90626 90625 90804 91078 91287 91377 91377 91331 91269
3824.1499 91208 91154 91113 91086 91076 91082 91098 91110 91102 91068 91011
3829.4531 90943 90890 90882 90941 91046 91139 91170 91134 91048 90939 90838
3834.7566 90771 90749 90764 90809 90878 90961 91031 91059 91039 90997 90957
3840.0598 90930 90912 90899 90891 90901 90943 91020 91112 91181 91200 91170
3845.3630 91116 91060 91013 90983 90969 90968 90975 90981 90975 90947 90887
3850.6663 90786 90640 90454 90262 90163 90299 90645 90969 91133 91164 91129
3855.9697 91082 91061 91086 91147 91214 91260 91273 91260 91232 91199 91162
3861.2729 91115 91051 90975 90901 90852 90849 90905 90997 91068 91077 91033
3866.5762 90964 90898 90854 90851 90911 91045 91208 91300 91277 91178 91051
3871.8794 90924 90818 90759 90772 90857 90966 91037 91052 91028 90986 90939
3877.1829 90890 90840 90791 90757 90762 90833 90964 91097 91169 91165 91102
3882.4861 91004 90895 90799 90748 90777 90902 91086 91237 91287 91242 91142
3887.7893 91020 90896 90781 90683 90622 90625 90711 90856 90995 91073 91087
3893.0925 91072 91062 91080 91124 91169 91186 91153 91069 90946 90806 90682
3898.3960 90609 90605 90661 90748 90845 90939 91025 91095 91143 91172 91193
3903.6992 91218 91245 91258 91243 91195 91129 91065 91021 91005 91014 91037
3909.0024 91054 91053 91032 91003 90983 90988 91021 91068 91106 91109 91067
3914.3057 90984 90881 90789 90741 90759 90833 90922 90990 91021 91024 91011
3919.6091 90996 90982 90968 90948 90917 90875 90826 90779 90752 90767 90830
3924.9124 90926 91021 91088 91115 91107 91079 91046 91020 91006 91000 90997
3930.2156 90994 90992 90994 91000 91005 91000 90984 90960 90938 90925 90928
3935.5188 90944 90969 90997 91025 91051 91074 91092 91095 91076 91031 90968
3940.8223 90900 90848 90833 90864 90933 91010 91065 91085 91067 91022 90964
3946.1255 90913 90889 90904 90957 91035 91117 91182 91216 91212 91175 91114
3951.4287 91044 90977 90922 90886 90868 90864 90863 90857 90842 90821 90801
3956.7319 90791 90796 90815 90841 90863 90876 90878 90873 90871 90878 90899
3962.0354 90928 90955 90972 90973 90961 90943 90928 90919 90917 90919 90922
3967.3386 90927 90936 90950 90966 90978 90977 90965 90946 90935 90942 90971
3972.6418 91015 91056 91072 91054 91003 90937 90882 90857 90874 90926 90996
3977.9451 91064 91115 91141 91140 91118 91083 91040 90995 90953 90918 90894
3983.2485 90883 90880 90878 90871 90856 90839 90830 90840 90867 90903 90933
3988.5518 90947 90944 90930 90916 90903 90892 90879 90863 90851 90849 90860
3993.8550 90881 90906 90925 90937 90941 90943 90944 90947 90950 90951 90952
3999.1582 90954 90960 90972
##END= 
