##TITLE= INC392
##JCAMP-DX= 4.24
##DATA TYPE= INFRARED SPECTRUM
##ORIGIN= JASCO
##OWNER= 
##DATE= 22/04/13
##TIME= 15:27:14
##SPECTROMETER/DATA SYSTEM= 
##RESOLUTION= 
##DELTAX=   0.48211674
##XUNITS= 1/CM
##YUNITS= TRANSMITTANCE
##XFACTOR= 1.00000
##YFACTOR= 1E-005
##FIRSTX=   599.7532
##LASTX=  4000.1226
##NPOINTS=     7054
##FIRSTY=      0.68410
##MAXY=      0.99931
##MINY=      0.56138
##XYDATA= (X++(Y..Y))
599.7532 68410 68741 69079 69504 70009 70509 70903 71157 71337 71564 71933
605.0565 72449 73023 73525 73850 73966 73903 73716 73461 73179 72916 72717
610.3598 72619 72626 72705 72792 72829 72796 72715 72636 72595 72582 72541
615.6631 72408 72149 71792 71415 71103 70898 70785 70730 70713 70741 70837
620.9664 70999 71198 71388 71541 71666 71807 72013 72325 72755 73296 73919
626.2697 74576 75206 75740 76128 76356 76455 76501 76589 76802 77190 77750
631.5729 78429 79148 79825 80401 80860 81215 81487 81688 81815 81875 81900
636.8762 81946 82060 82242 82432 82533 82487 82333 82218 82335 82810 83609
642.1795 84520 85238 85515 85287 84701 84024 83487 83190 83098 83121 83201
647.4828 83357 83659 84159 84833 85556 86142 86402 86218 85598 84698 83790
652.7861 83160 82979 83224 83685 84082 84228 84139 83994 83996 84221 84569
658.0894 84841 84875 84670 84392 84266 84437 84873 85375 85677 85593 85122
663.3926 84452 83863 83572 83623 83901 84202 84290 83874 82580 80298 78417
668.6959 78856 80677 82329 83384 83880 83940 83722 83419 83201 83126 83088
673.9992 82861 82222 81091 79603 78067 76831 76122 75943 76068 76140 75850
679.3025 75124 74162 73290 72743 72539 72505 72426 72203 71936 71862 72206
684.6058 73035 74227 75530 76701 77627 78369 79092 79951 80992 82124 83163
689.9091 83930 84357 84535 84671 84984 85615 86566 87696 88761 89496 89716
695.2123 89402 88717 87949 87417 87358 87843 88737 89731 90464 90666 90274
700.5156 89436 88413 87450 86676 86102 85672 85348 85130 85025 85005 84986
705.8189 84879 84639 84295 83919 83574 83280 83021 82781 82568 82398 82273
711.1222 82165 82031 81854 81663 81519 81466 81490 81526 81491 81344 81113
716.4255 80874 80698 80605 80551 80457 80260 79954 79597 79278 79056 78917
721.7288 78793 78610 78333 77984 77627 77326 77111 76969 76858 76744 76618
727.0320 76499 76410 76354 76304 76209 76021 75726 75349 74948 74585 74300
732.3353 74100 73961 73847 73720 73553 73328 73034 72669 72234 71739 71200
737.6386 70638 70087 69582 69146 68785 68473 68160 67798 67358 66845 66300
742.9419 65770 65281 64830 64381 63887 63312 62651 61936 61226 60596 60128
748.2452 59893 59951 60330 61024 61994 63182 64537 66028 67635 69335 71081
753.5485 72801 74412 75843 77056 78055 78869 79542 80106 80578 80961 81242
758.8517 81411 81460 81395 81231 80995 80716 80417 80117 79821 79528 79233
764.1550 78933 78624 78303 77968 77615 77239 76838 76412 75961 75492 75016
769.4583 74542 74082 73647 73256 72927 72676 72496 72361 72225 72045 71797
774.7616 71483 71121 70729 70314 69879 69431 68992 68592 68253 67979 67743
780.0649 67509 67238 66913 66537 66128 65714 65317 64954 64630 64341 64075
785.3682 63814 63543 63258 62964 62674 62400 62146 61902 61657 61406 61154
790.6714 60916 60701 60510 60336 60177 60041 59949 59923 59968 60067 60188
795.9747 60302 60404 60518 60685 60939 61288 61705 62135 62532 62879 63200
801.2780 63543 63947 64414 64904 65361 65743 66052 66326 66618 66972 67402
806.5813 67901 68449 69024 69608 70182 70728 71229 71672 72053 72379 72671
811.8846 72957 73269 73630 74037 74467 74881 75249 75564 75842 76115 76414
817.1879 76753 77129 77524 77910 78260 78556 78801 79020 79247 79511 79822
822.4911 80167 80514 80831 81092 81284 81407 81473 81509 81550 81629 81759
827.7944 81929 82102 82235 82299 82295 82244 82181 82126 82083 82036 81962
833.0977 81844 81678 81478 81269 81081 80940 80857 80826 80824 80824 80810
838.4010 80787 80774 80791 80842 80906 80950 80947 80899 80836 80802 80834
843.7043 80939 81090 81237 81334 81353 81297 81189 81065 80952 80867 80812
849.0076 80785 80772 80758 80720 80635 80494 80310 80120 79972 79899 79898
854.3109 79927 79921 79825 79611 79294 78911 78502 78094 77689 77275 76837
859.6141 76358 75831 75251 74612 73907 73127 72266 71319 70286 69172 67980
864.9174 66717 65386 64001 62587 61187 59861 58670 57668 56892 56371 56138
870.2207 56235 56707 57585 58862 60486 62375 64437 66590 68770 70917 72973
875.5240 74871 76555 77996 79196 80184 80997 81665 82212 82663 83048 83399
880.8273 83737 84060 84339 84536 84624 84608 84526 84430 84364 84348 84370
886.1306 84405 84427 84421 84388 84336 84276 84214 84157 84108 84076 84064
891.4338 84073 84102 84148 84210 84293 84395 84515 84646 84782 84921 85060
896.7371 85190 85290 85340 85328 85264 85182 85121 85104 85127 85163 85174
902.0404 85133 85033 84875 84660 84380 84029 83608 83141 82669 82241 81899
907.3437 81664 81533 81482 81470 81456 81416 81347 81266 81203 81175 81185
912.6470 81216 81244 81249 81220 81155 81054 80921 80763 80598 80450 80338
917.9503 80265 80213 80146 80028 79833 79558 79216 78831 78430 78032 77646
923.2535 77269 76897 76534 76197 75924 75756 75728 75859 76141 76552 77057
928.5568 77617 78190 78734 79214 79606 79900 80106 80242 80331 80389 80430
933.8601 80454 80459 80436 80381 80294 80178 80043 79898 79751 79610 79481
939.1634 79369 79269 79165 79039 78881 78700 78521 78373 78270 78198 78129
944.4667 78030 77888 77712 77524 77344 77178 77023 76866 76700 76521 76332
949.7700 76131 75917 75683 75421 75125 74788 74403 73969 73490 72980 72453
955.0732 71925 71410 70915 70450 70025 69650 69334 69081 68891 68771 68739
960.3765 68825 69061 69466 70037 70747 71554 72412 73276 74102 74843 75457
965.6798 75913 76199 76324 76309 76178 75949 75636 75261 74857 74473 74165
970.9831 73978 73941 74060 74326 74715 75203 75757 76342 76915 77429 77838
976.2864 78112 78241 78241 78141 77970 77747 77476 77146 76749 76283 75757
981.5897 75188 74595 73995 73393 72793 72191 71579 70950 70296 69613 68907
986.8929 68192 67496 66856 66318 65932 65752 65826 66188 66841 67752 68848
992.1962 70038 71228 72345 73343 74196 74888 75405 75734 75876 75850 75696
997.4995 75462 75194 74924 74668 74422 74175 73909 73609 73271 72901 72516
1002.8028 72134 71767 71417 71079 70752 70434 70129 69837 69555 69281 69019
1008.1061 68785 68610 68520 68533 68637 68797 68960 69073 69102 69042 68916
1013.4094 68760 68614 68498 68419 68369 68341 68340 68385 68499 68701 68997
1018.7126 69375 69820 70323 70892 71549 72321 73222 74248 75371 76555 77770
1024.0160 78998 80230 81453 82642 83758 84761 85624 86340 86915 87359 87672
1029.3192 87851 87896 87822 87660 87456 87254 87091 86993 86981 87070 87267
1034.6226 87572 87968 88434 88947 89486 90035 90578 91094 91561 91962 92294
1039.9258 92570 92815 93053 93293 93527 93734 93895 94000 94047 94046 94005
1045.2291 93931 93829 93704 93561 93405 93237 93058 92868 92670 92470 92281
1050.5323 92115 91982 91880 91801 91725 91638 91533 91414 91291 91173 91060
1055.8357 90946 90827 90711 90614 90551 90526 90529 90547 90569 90596 90639
1061.1389 90702 90775 90828 90826 90738 90556 90295 89984 89661 89357 89090
1066.4423 88864 88672 88504 88349 88205 88073 87955 87849 87745 87626 87479
1071.7455 87297 87089 86869 86657 86461 86279 86098 85902 85682 85439 85182
1077.0488 84919 84651 84366 84049 83685 83264 82788 82264 81698 81094 80453
1082.3521 79774 79060 78319 77566 76817 76085 75375 74687 74024 73398 72840
1087.6554 72398 72132 72105 72374 72979 73942 75248 76844 78641 80527 82391
1092.9586 84148 85748 87177 88433 89505 90373 91009 91404 91578 91580 91471
1098.2620 91310 91142 90994 90882 90808 90765 90731 90677 90582 90446 90291
1103.5652 90153 90060 90019 90007 89987 89925 89804 89630 89422 89206 89001
1108.8685 88819 88664 88532 88417 88312 88216 88132 88064 88014 87976 87939
1114.1718 87887 87803 87679 87512 87311 87096 86894 86735 86636 86596 86598
1119.4751 86613 86619 86608 86587 86570 86566 86573 86588 86604 86624 86649
1124.7783 86676 86689 86661 86572 86416 86213 85996 85798 85637 85512 85409
1130.0817 85318 85238 85177 85141 85129 85124 85103 85047 84955 84837 84716
1135.3849 84612 84536 84482 84436 84379 84295 84182 84049 83913 83791 83692
1140.6882 83615 83555 83504 83458 83417 83382 83353 83328 83302 83275 83246
1145.9915 83220 83199 83181 83156 83108 83026 82908 82768 82625 82502 82409
1151.2948 82347 82308 82284 82266 82253 82238 82216 82174 82105 82005 81875
1156.5980 81723 81557 81386 81217 81054 80903 80765 80645 80544 80461 80390
1161.9014 80319 80239 80147 80050 79960 79891 79845 79813 79778 79729 79663
1167.2046 79592 79533 79495 79480 79475 79463 79432 79374 79291 79189 79078
1172.5079 78964 78852 78743 78640 78546 78464 78395 78333 78269 78190 78088
1177.8112 77961 77817 77669 77528 77401 77285 77175 77060 76936 76802 76660
1183.1145 76519 76386 76266 76159 76059 75955 75837 75698 75537 75361 75178
1188.4177 74996 74819 74644 74471 74298 74129 73966 73813 73668 73527 73385
1193.7211 73237 73084 72928 72776 72637 72512 72403 72303 72204 72104 72006
1199.0243 71916 71834 71747 71632 71463 71226 70925 70581 70220 69859 69505
1204.3276 69154 68799 68437 68064 67682 67289 66893 66501 66125 65774 65447
1209.6309 65135 64827 64513 64195 63881 63585 63317 63090 62915 62811 62808
1214.9342 62947 63271 63824 64636 65718 67062 68633 70377 72225 74101 75935
1220.2374 77664 79242 80638 81838 82841 83656 84302 84800 85178 85463 85681
1225.5408 85852 85989 86099 86184 86243 86276 86277 86238 86150 86008 85816
1230.8440 85585 85331 85072 84821 84587 84374 84181 84002 83825 83638 83429
1236.1473 83195 82942 82682 82424 82175 81938 81713 81503 81310 81138 80991
1241.4506 80864 80747 80626 80483 80304 80083 79823 79531 79218 78887 78537
1246.7539 78162 77758 77332 76894 76463 76052 75668 75310 74976 74661 74360
1252.0571 74069 73784 73499 73213 72929 72651 72384 72132 71895 71672 71462
1257.3605 71271 71100 70952 70820 70693 70556 70402 70229 70048 69867 69692
1262.6637 69513 69316 69083 68804 68479 68122 67749 67369 66986 66593 66182
1267.9670 65752 65310 64878 64474 64115 63809 63554 63342 63164 63015 62898
1273.2703 62823 62805 62852 62967 63141 63365 63628 63928 64269 64654 65083
1278.5736 65550 66047 66573 67129 67726 68370 69066 69808 70589 71398 72224
1283.8768 73061 73902 74741 75578 76414 77251 78093 78938 79783 80622 81448
1289.1802 82257 83038 83780 84472 85104 85670 86168 86594 86942 87206 87385
1294.4834 87485 87521 87511 87475 87427 87385 87359 87360 87394 87461 87558
1299.7867 87680 87823 87988 88175 88383 88607 88840 89076 89312 89544 89767
1305.0900 89970 90143 90277 90374 90444 90503 90568 90650 90751 90865 90980
1310.3933 91084 91167 91218 91232 91206 91142 91046 90924 90786 90643 90500
1315.6965 90362 90226 90090 89950 89806 89665 89537 89425 89329 89235 89130
1320.9999 89006 88860 88699 88530 88361 88193 88022 87845 87663 87478 87298
1326.3031 87130 86978 86846 86736 86652 86602 86597 86648 86759 86929 87149
1331.6064 87409 87696 88001 88314 88625 88927 89213 89484 89744 89996 90243
1336.9097 90479 90699 90895 91064 91205 91314 91382 91404 91382 91327 91258
1342.2130 91192 91137 91096 91056 91003 90924 90815 90684 90544 90407 90283
1347.5162 90176 90089 90026 89991 89982 89993 90016 90042 90072 90111 90165
1352.8196 90234 90311 90382 90435 90464 90470 90463 90450 90437 90424 90409
1358.1228 90392 90368 90331 90273 90186 90072 89939 89804 89685 89598 89549
1363.4261 89529 89520 89503 89462 89390 89284 89148 88997 88849 88721 88623
1368.7294 88552 88492 88424 88334 88212 88060 87880 87674 87437 87160 86832
1374.0327 86460 86065 85675 85306 84950 84592 84221 83836 83449 83079 82736
1379.3359 82423 82132 81858 81598 81361 81155 80988 80860 80772 80718 80691
1384.6393 80685 80694 80713 80749 80815 80923 81067 81220 81356 81465 81554
1389.9425 81634 81714 81793 81861 81910 81935 81940 81934 81922 81907 81890
1395.2458 81868 81842 81812 81780 81746 81715 81696 81700 81734 81786 81838
1400.5491 81874 81885 81870 81833 81777 81706 81623 81531 81434 81335 81237
1405.8524 81139 81030 80897 80732 80533 80307 80068 79832 79608 79397 79196
1411.1556 79003 78820 78651 78502 78383 78303 78274 78312 78435 78650 78944
1416.4590 79281 79625 79964 80332 80806 81444 82173 82804 83234 83494 83655
1421.7622 83772 83871 83954 84012 84029 84003 83953 83903 83874 83883 83937
1427.0656 84038 84184 84379 84633 84962 85369 85819 86256 86640 86974 87287
1432.3688 87604 87925 88222 88464 88639 88756 88833 88885 88910 88897 88844
1437.6721 88769 88683 88587 88477 88349 88205 88046 87877 87696 87498 87279
1442.9753 87032 86753 86441 86104 85757 85415 85086 84765 84438 84095 83748
1448.2787 83431 83170 82967 82807 82678 82577 82516 82507 82555 82649 82766
1453.5819 82884 82988 83069 83124 83153 83152 83116 83039 82926 82797 82674
1458.8853 82573 82510 82502 82570 82727 82970 83276 83607 83930 84232 84520
1464.1885 84804 85070 85273 85377 85387 85329 85222 85078 84899 84689 84451
1469.4918 84190 83906 83597 83255 82857 82379 81832 81297 80848 80482 80156
1474.7950 79826 79460 79048 78616 78207 77850 77537 77244 76957 76679 76430
1480.0984 76234 76109 76058 76069 76134 76254 76442 76705 77037 77420 77838
1485.4016 78292 78807 79399 80045 80661 81163 81533 81827 82142 82550 83023
1490.7050 83448 83747 83939 84077 84194 84300 84387 84448 84487 84527 84593
1496.0082 84700 84827 84940 85028 85097 85159 85209 85233 85224 85189 85143
1501.3115 85103 85079 85072 85070 85061 85037 84996 84942 84892 84889 84996
1506.6147 85202 85363 85398 85340 85240 85130 85026 84931 84836 84731 84606
1511.9181 84463 84315 84178 84058 83950 83846 83740 83633 83529 83436 83353
1517.2213 83267 83164 83039 82890 82717 82519 82304 82096 81939 81842 81747
1522.5247 81612 81443 81257 81069 80888 80721 80573 80445 80331 80223 80112
1527.8279 79995 79873 79750 79628 79502 79367 79224 79075 78929 78794 78679
1533.1312 78581 78488 78381 78254 78109 77949 77777 77598 77417 77241 77080
1538.4344 76961 76929 77014 77149 77241 77275 77281 77276 77266 77254 77256
1543.7378 77302 77437 77703 78094 78547 78989 79389 79765 80151 80594 81156
1549.0410 81905 82877 83994 85075 85971 86657 87194 87673 88199 88870 89714
1554.3444 90584 91260 91671 91893 92026 92144 92306 92586 93079 93756 94267
1559.6476 94479 94585 94685 94790 94894 94995 95095 95196 95295 95386 95465
1564.9509 95536 95610 95698 95800 95910 96018 96118 96204 96281 96365 96472
1570.2542 96597 96723 96836 96930 97001 97046 97069 97076 97074 97067 97053
1575.5575 97022 96967 96894 96817 96737 96647 96549 96449 96365 96316 96311
1580.8607 96344 96397 96455 96511 96569 96637 96715 96798 96876 96941 96996
1586.1641 97051 97117 97202 97304 97420 97541 97663 97781 97893 97995 98086
1591.4674 98164 98230 98280 98309 98310 98279 98219 98141 98062 97995 97946
1596.7706 97917 97906 97910 97925 97947 97973 98000 98029 98063 98106 98159
1602.0740 98221 98292 98373 98465 98567 98670 98762 98825 98849 98832 98782
1607.3772 98714 98639 98553 98445 98310 98153 97994 97855 97745 97662 97596
1612.6805 97542 97501 97477 97471 97471 97454 97380 97208 96957 96741 96637
1617.9838 96613 96605 96568 96485 96356 96199 96031 95847 95604 95216 94592
1623.2871 93745 92864 92153 91666 91351 91161 91089 91172 91457 91947 92554
1628.5903 93153 93668 94089 94437 94725 94957 95128 95242 95311 95350 95371
1633.8937 95373 95346 95276 95166 95058 94982 94928 94875 94815 94751 94688
1639.1969 94629 94565 94489 94390 94273 94157 94067 94026 94042 94105 94200
1644.5002 94310 94419 94514 94590 94665 94778 94946 95147 95343 95509 95640
1649.8035 95744 95834 95925 96030 96165 96347 96568 96732 96785 96827 96906
1655.1068 97015 97145 97290 97442 97592 97734 97866 97993 98125 98268 98421
1660.4100 98576 98722 98848 98949 99032 99112 99206 99313 99424 99528 99620
1665.7134 99699 99772 99843 99904 99931 99874 99680 99358 98998 98687 98436
1671.0166 98210 97985 97768 97580 97427 97297 97158 96966 96693 96377 96108
1676.3199 95923 95794 95684 95572 95451 95319 95179 95040 94914 94806 94715
1681.6232 94634 94552 94459 94342 94196 94057 93984 93957 93922 93859 93771
1686.9265 93664 93551 93448 93378 93351 93357 93373 93376 93359 93326 93286
1692.2297 93248 93213 93180 93149 93121 93101 93093 93086 93059 93005 92941
1697.5331 92881 92829 92788 92758 92742 92742 92749 92750 92746 92744 92744
1702.8363 92743 92742 92742 92747 92766 92806 92860 92911 92937 92928 92885
1708.1396 92810 92706 92569 92398 92197 91977 91752 91531 91315 91105 90904
1713.4429 90721 90568 90453 90365 90289 90219 90171 90189 90333 90603 90876
1718.7462 91025 91049 91004 90928 90840 90741 90630 90499 90342 90157 89944
1724.0494 89709 89461 89204 88940 88671 88402 88142 87899 87675 87468 87272
1729.3528 87084 86908 86755 86626 86519 86428 86359 86342 86452 86771 87220
1734.6560 87582 87796 87937 88069 88216 88379 88550 88725 88916 89135 89375
1739.9594 89590 89732 89796 89809 89801 89800 89823 89872 89927 89961 89958
1745.2626 89918 89851 89776 89709 89663 89636 89610 89566 89496 89408 89320
1750.5659 89250 89214 89211 89224 89232 89222 89189 89131 89052 88963 88880
1755.8691 88826 88816 88847 88889 88914 88907 88873 88828 88785 88763 88776
1761.1725 88833 88915 88987 89018 89006 88970 88924 88882 88849 88824 88806
1766.4757 88795 88789 88786 88779 88755 88711 88653 88596 88558 88565 88643
1771.7791 88787 88929 88990 88960 88881 88794 88720 88672 88651 88650 88655
1777.0823 88655 88641 88612 88572 88529 88497 88493 88523 88575 88626 88653
1782.3856 88650 88625 88591 88565 88555 88556 88555 88541 88513 88480 88452
1787.6888 88434 88424 88416 88399 88373 88341 88314 88307 88330 88376 88421
1792.9922 88440 88432 88409 88384 88368 88362 88361 88355 88340 88318 88297
1798.2954 88281 88270 88255 88225 88173 88109 88050 88011 87999 88009 88027
1803.5988 88038 88030 87999 87948 87884 87817 87762 87730 87722 87730 87739
1808.9020 87736 87715 87681 87645 87620 87604 87589 87559 87505 87426 87330
1814.2053 87230 87136 87052 86977 86908 86843 86784 86735 86695 86661 86622
1819.5085 86569 86497 86411 86321 86240 86175 86127 86091 86061 86036 86017
1824.8119 86006 85995 85977 85949 85919 85899 85904 85946 86027 86135 86233
1830.1151 86287 86298 86294 86301 86332 86391 86470 86559 86644 86719 86786
1835.4185 86856 86944 87060 87202 87356 87495 87598 87654 87667 87653 87629
1840.7217 87614 87613 87628 87655 87696 87762 87864 87995 88120 88209 88257
1846.0250 88277 88282 88281 88273 88255 88232 88213 88214 88245 88305 88378
1851.3282 88439 88463 88441 88384 88319 88277 88274 88309 88363 88409 88427
1856.6316 88407 88353 88278 88200 88136 88099 88095 88122 88166 88212 88244
1861.9348 88259 88261 88260 88260 88258 88246 88220 88184 88151 88133 88133
1867.2382 88144 88148 88130 88082 88015 87950 87910 87904 87925 87958 87980
1872.5414 87968 87916 87845 87788 87775 87809 87863 87895 87878 87812 87727
1877.8447 87660 87635 87657 87710 87775 87829 87852 87826 87740 87602 87439
1883.1479 87290 87186 87131 87106 87079 87036 86988 86965 86991 87064 87157
1888.4513 87220 87204 87090 86909 86720 86574 86494 86479 86520 86603 86709
1893.7545 86817 86905 86959 86975 86961 86933 86903 86880 86863 86851 86835
1899.0579 86812 86780 86744 86719 86720 86755 86819 86890 86937 86937 86884
1904.3611 86791 86685 86593 86537 86530 86578 86680 86819 86965 87073 87105
1909.6644 87045 86911 86743 86578 86440 86329 86243 86184 86162 86182 86234
1914.9677 86286 86301 86257 86158 86032 85917 85833 85760 85651 85469 85212
1920.2710 84918 84647 84469 84440 84574 84821 85086 85288 85400 85441 85444
1925.5742 85428 85388 85306 85171 84991 84788 84590 84412 84263 84149 84084
1930.8776 84096 84209 84434 84757 85141 85532 85881 86152 86331 86424 86454
1936.1808 86451 86445 86449 86461 86472 86472 86461 86447 86437 86425 86401
1941.4841 86361 86324 86331 86415 86573 86767 86950 87091 87187 87253 87310
1946.7874 87362 87399 87409 87400 87406 87463 87588 87760 87928 88044 88087
1952.0907 88073 88039 88025 88052 88130 88260 88440 88664 88917 89175 89415
1957.3939 89625 89797 89914 89940 89832 89573 89208 88849 88634 88652 88884
1962.6973 89204 89447 89498 89361 89147 89015 89087 89385 89829 90271 90571
1968.0005 90643 90465 90058 89482 88846 88311 88044 88146 88589 89217 89806
1973.3038 90169 90235 90071 89822 89627 89562 89636 89819 90066 90321 90517
1978.6071 90590 90511 90304 90031 89749 89481 89209 88905 88576 88279 88096
1983.9104 88083 88222 88423 88569 88588 88490 88353 88267 88272 88334 88372
1989.2136 88323 88192 88050 87989 88065 88248 88423 88468 88341 88104 87868
1994.5170 87718 87669 87667 87641 87574 87535 87645 87989 88551 89195 89727
1999.8202 90008 90030 89909 89800 89793 89866 89903 89778 89437 88938 88420
2005.1235 88044 87920 88079 88467 88965 89432 89751 89874 89821 89654 89426
2010.4268 89169 88896 88646 88492 88515 88748 89130 89520 89774 89843 89804
2015.7301 89814 89993 90331 90689 90898 90879 90668 90350 89969 89510 88951
2021.0333 88354 87883 87728 87984 88566 89238 89742 89954 89957 89968 90190
2026.3367 90682 91339 91968 92397 92541 92401 92026 91483 90854 90236 89722
2031.6399 89369 89179 89120 89165 89327 89644 90116 90664 91129 91351 91258
2036.9432 90915 90487 90138 89951 89895 89859 89723 89426 88993 88527 88158
2042.2465 87995 88083 88383 88791 89171 89401 89413 89220 88904 88591 88408
2047.5498 88453 88755 89260 89833 90296 90512 90444 90173 89839 89562 89387
2052.8530 89278 89156 88954 88675 88394 88218 88218 88397 88680 88959 89135
2058.1563 89162 89052 88862 88665 88517 88447 88450 88500 88556 88580 88551
2063.4597 88471 88367 88285 88263 88310 88396 88473 88500 88467 88397 88328
2068.7629 88284 88267 88256 88229 88175 88098 88010 87919 87830 87750 87694
2074.0662 87679 87719 87816 87952 88102 88238 88341 88403 88423 88408 88365
2079.3694 88306 88251 88224 88247 88331 88465 88612 88726 88765 88719 88606
2084.6729 88464 88330 88225 88152 88106 88087 88102 88158 88250 88355 88436
2089.9761 88458 88404 88282 88120 87956 87819 87731 87704 87745 87853 88013
2095.2793 88193 88349 88446 88470 88433 88365 88292 88222 88149 88071 88000
2100.5825 87963 87982 88055 88153 88238 88283 88290 88280 88274 88277 88276
2105.8860 88258 88230 88221 88266 88375 88518 88639 88686 88643 88541 88437
2111.1892 88377 88371 88390 88394 88364 88321 88305 88345 88429 88508 88518
2116.4924 88428 88257 88065 87921 87865 87896 87976 88055 88101 88108 88093
2121.7957 88083 88098 88148 88224 88302 88353 88360 88327 88282 88265 88294
2127.0991 88351 88382 88327 88167 87944 87747 87665 87732 87901 88075 88161
2132.4023 88124 88001 87867 87781 87750 87747 87742 87735 87749 87798 87856
2137.7056 87879 87836 87751 87691 87727 87882 88118 88353 88517 88581 88567
2143.0088 88525 88502 88525 88586 88638 88604 88409 88028 87534 87081 86845
2148.3123 86935 87330 87901 88474 88916 89162 89208 89070 88779 88396 88020
2153.6155 87762 87692 87796 87994 88211 88457 88852 89546 90599 91867 93015
2158.9187 93666 93625 92991 92071 91183 90510 90079 89824 89648 89475 89260
2164.2219 89008 88771 88645 88729 89074 89644 90308 90892 91238 91264 90978
2169.5254 90472 89887 89365 89007 88845 88839 88921 89033 89164 89338 89573
2174.8286 89850 90101 90250 90255 90133 89939 89731 89534 89349 89162 88961
2180.1318 88739 88493 88233 87992 87826 87791 87903 88116 88322 88400 88273
2185.4351 87959 87564 87247 87141 87289 87611 87923 88018 87775 87238 86611
2190.7385 86163 86097 86450 87092 87802 88386 88751 88913 88946 88916 88853
2196.0417 88754 88609 88424 88228 88058 87948 87928 88019 88219 88495 88772
2201.3450 88952 88949 88729 88334 87864 87439 87158 87067 87160 87391 87695
2206.6482 88002 88256 88418 88473 88427 88306 88144 87979 87852 87799 87836
2211.9517 87952 88107 88248 88341 88389 88426 88488 88579 88656 88655 88527
2217.2549 88277 87978 87741 87670 87814 88141 88534 88836 88899 88658 88156
2222.5581 87538 86993 86674 86644 86855 87190 87525 87781 87943 88035 88085
2227.8613 88102 88078 88005 87889 87755 87625 87517 87435 87384 87369 87398
2233.1648 87458 87525 87568 87584 87604 87677 87836 88067 88304 88467 88505
2238.4680 88420 88263 88094 87953 87852 87783 87732 87685 87635 87579 87521
2243.7712 87476 87461 87486 87545 87621 87696 87756 87793 87795 87746 87636
2249.0745 87483 87331 87238 87248 87367 87560 87771 87944 88047 88073 88033
2254.3779 87946 87838 87735 87657 87607 87571 87526 87454 87359 87266 87208
2259.6812 87211 87277 87390 87521 87646 87751 87835 87899 87941 87956 87938
2264.9844 87892 87831 87773 87726 87681 87619 87526 87409 87294 87213 87182
2270.2876 87190 87206 87204 87178 87145 87132 87152 87199 87248 87279 87288
2275.5911 87287 87291 87306 87321 87321 87294 87242 87178 87119 87076 87055
2280.8943 87057 87080 87118 87161 87190 87186 87140 87052 86943 86839 86769
2286.1975 86755 86804 86907 87042 87173 87265 87296 87265 87198 87126 87076
2291.5007 87057 87058 87064 87065 87063 87064 87071 87078 87076 87064 87049
2296.8042 87045 87062 87099 87142 87175 87186 87174 87147 87110 87071 87031
2302.1074 86998 86980 86983 87011 87055 87101 87135 87150 87147 87138 87135
2307.4106 87144 87165 87192 87212 87218 87204 87171 87126 87079 87041 87023
2312.7139 87025 87039 87050 87041 87011 86972 86949 86966 87028 87117 87204
2318.0173 87260 87281 87279 87276 87280 87279 87250 87183 87096 87029 87024
2323.3206 87100 87242 87404 87535 87595 87570 87467 87312 87145 87012 86944
2328.6238 86951 87009 87077 87117 87113 87084 87069 87105 87208 87357 87507
2333.9270 87605 87612 87514 87331 87111 86917 86803 86785 86836 86909 86964
2339.2305 86981 86965 86935 86908 86894 86897 86916 86948 86984 87011 87015
2344.5337 86996 86969 86950 86944 86938 86915 86870 86809 86744 86682 86626
2349.8369 86574 86523 86480 86459 86470 86509 86549 86563 86548 86535 86578
2355.1401 86711 86922 87143 87295 87339 87302 87246 87220 87224 87222 87177
2360.4436 87096 87029 87044 87185 87439 87740 87983 88073 87962 87674 87297
2365.7468 86946 86714 86635 86677 86773 86859 86908 86931 86955 86991 87027
2371.0500 87035 86994 86904 86787 86671 86581 86523 86491 86469 86441 86399
2376.3533 86342 86279 86222 86184 86172 86182 86202 86219 86224 86212 86187
2381.6567 86153 86113 86070 86026 85984 85950 85929 85925 85936 85956 85977
2386.9600 85995 86008 86017 86023 86026 86025 86021 86016 86015 86023 86039
2392.2632 86058 86069 86064 86039 85999 85952 85910 85882 85871 85874 85887
2397.5664 85907 85932 85962 85992 86012 86014 85990 85946 85897 85861 85850
2402.8699 85867 85904 85952 86001 86043 86067 86064 86026 85957 85871 85791
2408.1731 85735 85710 85711 85730 85758 85791 85827 85861 85888 85901 85896
2413.4763 85873 85838 85796 85756 85722 85698 85683 85674 85670 85673 85685
2418.7795 85707 85739 85776 85811 85840 85861 85871 85867 85850 85824 85796
2424.0830 85775 85762 85754 85744 85727 85707 85692 85687 85693 85699 85696
2429.3862 85679 85652 85624 85604 85597 85596 85594 85581 85554 85519 85485
2434.6895 85466 85463 85470 85476 85468 85442 85405 85371 85353 85353 85366
2439.9927 85380 85382 85369 85343 85310 85277 85247 85216 85182 85144 85108
2445.2961 85087 85095 85132 85188 85242 85274 85280 85266 85252 85248 85255
2450.5994 85258 85248 85222 85195 85181 85186 85196 85186 85136 85047 84945
2455.9026 84872 84861 84918 85019 85117 85169 85152 85074 84965 84864 84801
2461.2058 84783 84802 84836 84867 84881 84875 84852 84820 84787 84760 84742
2466.5093 84732 84727 84723 84722 84725 84736 84751 84760 84753 84726 84689
2471.8125 84656 84644 84652 84665 84660 84620 84549 84473 84424 84422 84464
2477.1157 84524 84567 84573 84541 84491 84446 84418 84406 84400 84386 84359
2482.4189 84318 84271 84225 84186 84163 84158 84172 84198 84227 84253 84272
2487.7224 84290 84310 84332 84347 84343 84312 84257 84191 84133 84093 84071
2493.0256 84057 84039 84014 83992 83985 84007 84057 84122 84184 84224 84234
2498.3289 84214 84172 84120 84069 84028 84003 83994 83995 83997 83993 83982
2503.6321 83967 83954 83952 83967 83999 84046 84099 84143 84163 84143 84083
2508.9355 83992 83893 83814 83775 83781 83821 83874 83917 83932 83919 83887
2514.2388 83853 83832 83825 83827 83826 83813 83788 83760 83742 83742 83756
2519.5420 83773 83777 83758 83717 83666 83625 83611 83630 83670 83706 83712
2524.8452 83677 83607 83529 83472 83453 83468 83499 83521 83519 83497 83468
2530.1487 83452 83460 83493 83539 83579 83594 83570 83504 83407 83302 83211
2535.4519 83156 83143 83167 83214 83263 83297 83301 83274 83224 83168 83125
2540.7551 83109 83118 83139 83154 83148 83118 83071 83020 82977 82947 82930
2546.0583 82924 82924 82923 82914 82888 82844 82785 82723 82671 82637 82625
2551.3618 82631 82650 82677 82705 82728 82739 82734 82713 82683 82651 82624
2556.6650 82603 82587 82575 82563 82553 82542 82530 82519 82508 82500 82491
2561.9683 82475 82442 82389 82319 82243 82178 82134 82117 82121 82136 82150
2567.2715 82153 82143 82124 82107 82101 82109 82127 82139 82132 82097 82039
2572.5750 81972 81917 81895 81918 81984 82079 82178 82261 82312 82332 82328
2577.8782 82305 82265 82207 82135 82064 82018 82011 82043 82089 82115 82097
2583.1814 82030 81935 81840 81770 81733 81725 81734 81749 81764 81773 81774
2588.4849 81762 81734 81692 81639 81583 81539 81517 81524 81556 81599 81636
2593.7881 81647 81626 81571 81493 81404 81321 81259 81231 81238 81273 81313
2599.0913 81335 81325 81280 81217 81155 81111 81088 81076 81066 81051 81030
2604.3945 81009 80988 80968 80945 80918 80892 80871 80857 80846 80833 80816
2609.6980 80799 80787 80782 80781 80771 80742 80689 80621 80556 80510 80495
2615.0012 80511 80545 80577 80591 80577 80538 80489 80449 80433 80444 80472
2620.3044 80502 80520 80518 80501 80477 80455 80439 80428 80418 80407 80392
2625.6077 80376 80361 80349 80339 80328 80311 80286 80254 80223 80198 80181
2630.9111 80168 80154 80129 80091 80041 79984 79931 79886 79854 79837 79831
2636.2144 79833 79840 79845 79846 79838 79819 79790 79753 79712 79673 79640
2641.5176 79616 79602 79597 79598 79600 79599 79592 79578 79556 79530 79503
2646.8208 79480 79464 79459 79462 79471 79482 79488 79487 79477 79461 79442
2652.1243 79425 79415 79412 79417 79427 79438 79444 79444 79436 79420 79399
2657.4275 79376 79354 79335 79321 79314 79312 79312 79307 79292 79266 79232
2662.7307 79198 79171 79156 79149 79140 79123 79095 79063 79036 79018 79009
2668.0339 79001 78984 78957 78924 78894 78874 78863 78853 78835 78801 78752
2673.3374 78693 78634 78585 78550 78532 78525 78524 78524 78518 78506 78489
2678.6406 78470 78453 78441 78435 78434 78436 78435 78425 78401 78366 78326
2683.9438 78291 78265 78251 78242 78232 78215 78193 78173 78161 78159 78164
2689.2471 78169 78167 78156 78137 78116 78097 78084 78073 78059 78036 78002
2694.5505 77961 77918 77880 77853 77834 77820 77806 77791 77772 77751 77730
2699.8538 77711 77698 77692 77693 77700 77708 77713 77712 77701 77678 77645
2705.1570 77607 77571 77549 77548 77566 77594 77617 77623 77608 77578 77543
2710.4602 77513 77494 77482 77473 77461 77444 77426 77408 77396 77391 77392
2715.7637 77397 77403 77408 77409 77406 77401 77394 77386 77376 77367 77359
2721.0669 77353 77352 77353 77355 77354 77347 77337 77323 77309 77294 77272
2726.3701 77241 77198 77146 77092 77042 77004 76975 76952 76930 76907 76881
2731.6733 76855 76832 76816 76806 76802 76799 76791 76773 76740 76693 76636
2736.9768 76577 76523 76484 76465 76469 76492 76527 76562 76590 76605 76610
2742.2800 76609 76607 76605 76604 76600 76591 76579 76566 76554 76542 76528
2747.5833 76510 76486 76459 76433 76414 76406 76407 76414 76419 76419 76411
2752.8865 76400 76389 76383 76383 76385 76382 76371 76349 76320 76292 76271
2758.1899 76260 76259 76263 76267 76269 76267 76261 76251 76241 76236 76239
2763.4932 76251 76268 76283 76292 76291 76281 76263 76236 76199 76155 76108
2768.7964 76066 76033 76011 75994 75977 75954 75926 75898 75875 75862 75859
2774.0996 75863 75866 75864 75851 75827 75796 75764 75736 75714 75694 75670
2779.4031 75635 75591 75543 75502 75475 75464 75466 75471 75469 75452 75421
2784.7063 75380 75339 75310 75298 75303 75319 75337 75345 75340 75318 75283
2790.0095 75242 75200 75163 75134 75114 75102 75097 75098 75104 75111 75120
2795.3127 75129 75139 75146 75148 75138 75112 75072 75024 74981 74950 74938
2800.6162 74938 74943 74942 74932 74914 74895 74879 74868 74857 74845 74832
2805.9194 74822 74818 74821 74825 74822 74807 74783 74761 74752 74758 74775
2811.2227 74789 74791 74779 74762 74751 74753 74768 74786 74798 74800 74794
2816.5259 74789 74792 74812 74852 74911 74984 75058 75120 75163 75187 75202
2821.8293 75224 75262 75317 75383 75450 75512 75569 75624 75684 75750 75822
2827.1326 75899 75981 76071 76168 76269 76371 76465 76550 76625 76696 76771
2832.4358 76859 76965 77093 77236 77385 77523 77644 77746 77840 77938 78050
2837.7390 78173 78297 78408 78502 78581 78650 78710 78756 78782 78789 78788
2843.0425 78796 78826 78879 78946 79013 79072 79122 79172 79225 79279 79329
2848.3457 79371 79410 79456 79515 79588 79665 79735 79793 79840 79886 79939
2853.6489 79999 80061 80118 80166 80211 80264 80336 80433 80552 80684 80816
2858.9521 80932 81023 81083 81118 81143 81177 81233 81312 81404 81495 81576
2864.2556 81647 81718 81797 81891 81996 82104 82209 82307 82396 82476 82549
2869.5588 82619 82689 82762 82838 82913 82982 83044 83101 83159 83222 83286
2874.8621 83342 83383 83407 83423 83442 83475 83518 83563 83598 83621 83635
2880.1653 83652 83681 83724 83774 83824 83869 83905 83935 83958 83971 83973
2885.4688 83969 83965 83973 83998 84039 84086 84130 84166 84192 84215 84237
2890.7720 84262 84289 84320 84358 84403 84452 84494 84520 84522 84504 84477
2896.0752 84454 84442 84439 84436 84427 84414 84407 84416 84446 84486 84523
2901.3784 84542 84539 84524 84511 84513 84535 84571 84608 84633 84637 84619
2906.6819 84584 84546 84518 84511 84528 84561 84599 84629 84649 84661 84674
2911.9851 84690 84710 84729 84745 84761 84784 84817 84856 84893 84918 84928
2917.2883 84928 84929 84940 84964 84996 85033 85071 85109 85148 85191 85238
2922.5916 85288 85340 85386 85421 85437 85430 85405 85372 85346 85340 85360
2927.8950 85402 85457 85512 85560 85599 85633 85667 85705 85744 85780 85807
2933.1982 85821 85825 85823 85826 85840 85869 85911 85955 85990 86010 86014
2938.5015 86009 86006 86011 86022 86036 86049 86063 86083 86113 86147 86171
2943.8047 86170 86140 86088 86036 86005 86007 86039 86087 86134 86172 86200
2949.1082 86224 86248 86272 86296 86315 86327 86329 86321 86302 86278 86260
2954.4114 86261 86287 86338 86404 86469 86524 86567 86601 86632 86661 86683
2959.7146 86689 86677 86653 86627 86607 86593 86578 86555 86520 86479 86442
2965.0178 86417 86404 86393 86371 86330 86271 86205 86145 86098 86068 86050
2970.3213 86040 86034 86031 86027 86017 85997 85966 85935 85918 85926 85964
2975.6245 86020 86077 86117 86131 86119 86087 86041 85987 85924 85857 85795
2980.9277 85748 85721 85707 85692 85661 85610 85546 85490 85460 85463 85491
2986.2310 85524 85544 85537 85503 85448 85380 85307 85236 85175 85131 85108
2991.5344 85102 85106 85111 85111 85109 85109 85114 85119 85119 85107 85082
2996.8376 85049 85011 84969 84921 84866 84809 84764 84743 84751 84781 84819
3002.1409 84850 84870 84885 84905 84936 84974 85007 85025 85027 85020 85015
3007.4441 85017 85026 85032 85029 85013 84991 84970 84956 84947 84937 84919
3012.7476 84889 84850 84809 84774 84751 84742 84740 84735 84716 84674 84609
3018.0508 84526 84436 84356 84298 84272 84277 84304 84335 84353 84344 84305
3023.3540 84243 84172 84106 84055 84020 84001 83993 83992 83993 83991 83979
3028.6572 83951 83910 83863 83822 83798 83794 83806 83823 83835 83840 83836
3033.9607 83829 83821 83814 83806 83796 83783 83772 83767 83771 83781 83794
3039.2639 83806 83814 83820 83824 83826 83822 83808 83784 83752 83719 83691
3044.5671 83666 83642 83616 83588 83564 83554 83563 83590 83625 83656 83670
3049.8704 83662 83639 83612 83592 83583 83582 83578 83560 83525 83480 83437
3055.1738 83407 83395 83398 83409 83420 83425 83424 83421 83418 83419 83421
3060.4771 83420 83409 83388 83363 83346 83348 83372 83412 83452 83481 83496
3065.7803 83500 83503 83507 83509 83503 83485 83463 83445 83444 83460 83488
3071.0835 83514 83529 83526 83504 83466 83417 83359 83299 83242 83199 83175
3076.3870 83172 83184 83203 83219 83229 83237 83245 83249 83244 83222 83185
3081.6902 83140 83103 83084 83083 83092 83099 83098 83090 83081 83074 83069
3086.9934 83066 83064 83071 83093 83135 83194 83260 83321 83369 83402 83422
3092.2966 83433 83441 83450 83463 83484 83511 83540 83568 83588 83604 83622
3097.6001 83654 83709 83787 83880 83978 84073 84166 84261 84361 84458 84540
3102.9033 84592 84612 84613 84620 84654 84726 84829 84945 85051 85133 85188
3108.2065 85226 85263 85313 85383 85471 85567 85663 85749 85827 85899 85966
3113.5098 86028 86079 86113 86132 86142 86154 86180 86225 86288 86361 86430
3118.8132 86482 86513 86529 86541 86556 86575 86586 86572 86527 86461 86399
3124.1165 86368 86385 86444 86521 86589 86629 86641 86640 86646 86668 86705
3129.4197 86744 86771 86781 86775 86762 86752 86750 86755 86762 86760 86746
3134.7229 86718 86689 86674 86687 86734 86805 86878 86931 86953 86945 86919
3140.0264 86888 86865 86856 86866 86898 86950 87012 87067 87097 87091 87051
3145.3296 86992 86930 86878 86838 86803 86764 86716 86661 86607 86565 86545
3150.6328 86551 86582 86629 86678 86715 86731 86727 86707 86679 86650 86620
3155.9360 86585 86544 86498 86453 86412 86380 86355 86337 86325 86318 86309
3161.2395 86286 86238 86159 86055 85944 85848 85785 85759 85762 85777 85793
3166.5427 85804 85814 85826 85843 85856 85852 85821 85761 85679 85592 85510
3171.8459 85439 85379 85327 85283 85251 85233 85226 85217 85193 85147 85084
3177.1492 85022 84979 84970 84989 85019 85035 85015 84951 84852 84737 84630
3182.4526 84545 84484 84437 84394 84348 84296 84241 84180 84112 84034 83953
3187.7559 83877 83816 83769 83727 83674 83600 83507 83406 83312 83233 83169
3193.0591 83111 83049 82978 82894 82796 82690 82581 82480 82393 82316 82238
3198.3623 82147 82036 81913 81795 81698 81633 81592 81557 81511 81440 81344
3203.6658 81234 81125 81030 80954 80891 80830 80754 80653 80528 80388 80246
3208.9690 80111 79988 79879 79783 79700 79629 79563 79494 79415 79324 79228
3214.2722 79136 79055 78984 78919 78857 78798 78745 78699 78655 78607 78549
3219.5754 78482 78411 78340 78267 78189 78102 78004 77901 77803 77718 77651
3224.8789 77603 77569 77545 77524 77500 77474 77445 77416 77387 77356 77323
3230.1821 77291 77270 77272 77311 77392 77509 77643 77768 77863 77918 77943
3235.4854 77958 77990 78057 78160 78286 78416 78532 78629 78714 78799 78893
3240.7886 78999 79115 79236 79357 79481 79612 79754 79908 80075 80253 80438
3246.0920 80628 80814 80988 81142 81272 81384 81489 81601 81727 81863 82001
3251.3953 82129 82246 82358 82474 82600 82737 82876 83010 83140 83270 83407
3256.6985 83553 83702 83840 83957 84050 84126 84195 84262 84324 84375 84411
3262.0017 84436 84467 84520 84606 84719 84837 84934 84990 85001 84980 84944
3267.3052 84910 84886 84876 84884 84917 84980 85071 85174 85268 85331 85352
3272.6084 85338 85305 85275 85260 85264 85288 85328 85382 85442 85498 85536
3277.9116 85547 85533 85508 85490 85496 85527 85576 85635 85698 85771 85858
3283.2148 85959 86059 86131 86142 86076 85939 85761 85589 85466 85420 85454
3288.5183 85548 85668 85782 85867 85915 85929 85920 85902 85884 85869 85854
3293.8215 85832 85804 85775 85753 85746 85754 85770 85783 85784 85771 85747
3299.1248 85716 85676 85624 85556 85474 85388 85312 85256 85222 85200 85180
3304.4280 85155 85127 85100 85077 85055 85022 84970 84894 84802 84708 84622
3309.7314 84551 84492 84440 84390 84339 84282 84212 84123 84015 83898 83791
3315.0347 83714 83676 83669 83673 83668 83645 83613 83591 83594 83629 83686
3320.3379 83748 83800 83835 83853 83859 83864 83881 83926 84017 84163 84360
3325.6411 84593 84833 85057 85251 85419 85573 85729 85896 86078 86280 86506
3330.9446 86762 87050 87362 87683 87998 88300 88595 88894 89207 89530 89847
3336.2478 90140 90401 90638 90868 91105 91356 91611 91859 92089 92298 92491
3341.5510 92677 92866 93062 93266 93476 93681 93872 94041 94187 94323 94462
3346.8542 94613 94767 94904 95002 95055 95077 95092 95125 95184 95263 95353
3352.1577 95443 95532 95619 95699 95762 95801 95816 95817 95817 95823 95836
3357.4609 95850 95864 95879 95902 95939 95987 96037 96077 96099 96104 96096
3362.7642 96087 96084 96091 96109 96138 96174 96216 96259 96297 96326 96346
3368.0674 96359 96368 96376 96381 96383 96383 96387 96399 96416 96427 96421
3373.3708 96395 96358 96334 96341 96386 96455 96527 96586 96631 96669 96708
3378.6741 96747 96776 96784 96767 96730 96682 96635 96597 96576 96577 96598
3383.9773 96631 96660 96669 96653 96622 96596 96595 96624 96680 96747 96813
3389.2805 96869 96915 96953 96982 97001 97006 96991 96956 96906 96854 96818
3394.5840 96813 96848 96914 96987 97041 97054 97025 96970 96913 96866 96833
3399.8872 96808 96785 96765 96750 96741 96736 96726 96711 96692 96676 96669
3405.1904 96668 96668 96665 96662 96666 96683 96709 96735 96747 96740 96716
3410.4937 96682 96647 96617 96596 96585 96583 96585 96584 96577 96563 96552
3415.7971 96552 96571 96606 96642 96664 96662 96637 96602 96571 96553 96547
3421.1003 96548 96542 96525 96495 96456 96415 96380 96353 96335 96321 96304
3426.4036 96276 96239 96197 96162 96147 96153 96177 96208 96241 96277 96321
3431.7068 96371 96413 96425 96389 96310 96213 96137 96113 96144 96209 96270
3437.0103 96299 96287 96250 96213 96199 96212 96239 96260 96255 96214 96144
3442.3135 96065 96000 95964 95962 95987 96030 96081 96138 96194 96241 96263
3447.6167 96253 96216 96170 96133 96118 96119 96119 96099 96056 96007 95979
3452.9199 95993 96050 96131 96206 96252 96263 96247 96223 96203 96192 96190
3458.2234 96196 96208 96230 96260 96295 96330 96359 96380 96395 96402 96399
3463.5266 96385 96364 96347 96346 96369 96409 96452 96478 96478 96457 96430
3468.8298 96409 96397 96391 96385 96375 96366 96359 96355 96352 96351 96355
3474.1331 96375 96416 96476 96541 96595 96626 96631 96614 96583 96548 96514
3479.4365 96483 96456 96432 96410 96389 96373 96366 96373 96396 96433 96475
3484.7397 96511 96528 96521 96496 96464 96442 96436 96445 96454 96450 96428
3490.0430 96394 96361 96340 96336 96344 96360 96375 96385 96387 96384 96380
3495.3462 96383 96397 96419 96438 96442 96427 96398 96368 96344 96322 96290
3500.6497 96238 96168 96099 96057 96064 96118 96201 96285 96351 96393 96413
3505.9529 96416 96406 96390 96378 96384 96416 96472 96536 96581 96584 96541
3511.2561 96465 96379 96311 96276 96277 96304 96342 96380 96413 96443 96471
3516.5593 96493 96504 96502 96493 96489 96507 96551 96615 96680 96725 96736
3521.8628 96713 96666 96610 96553 96497 96439 96378 96319 96269 96230 96199
3527.1660 96170 96142 96118 96104 96099 96092 96072 96035 95993 95966 95973
3532.4692 96014 96068 96108 96108 96057 95962 95842 95725 95633 95580 95568
3537.7725 95589 95628 95666 95684 95675 95642 95601 95570 95557 95558 95554
3543.0759 95524 95457 95359 95253 95171 95139 95163 95230 95317 95398 95452
3548.3792 95472 95459 95419 95363 95303 95255 95230 95233 95256 95283 95299
3553.6824 95300 95290 95279 95275 95278 95281 95279 95268 95252 95239 95232
3558.9856 95229 95216 95182 95124 95055 94994 94958 94955 94979 95015 95045
3564.2891 95059 95057 95050 95052 95075 95118 95163 95186 95175 95136 95082
3569.5923 95028 94985 94954 94933 94919 94912 94915 94933 94962 94987 94989
3574.8955 94957 94897 94832 94787 94779 94804 94841 94867 94866 94840 94801
3580.1990 94768 94755 94766 94797 94835 94868 94885 94884 94869 94847 94824
3585.5022 94799 94769 94735 94706 94697 94712 94739 94759 94759 94738 94705
3590.8054 94674 94657 94660 94682 94711 94732 94729 94691 94623 94537 94460
3596.1086 94414 94413 94454 94520 94582 94615 94606 94561 94501 94456 94440
3601.4121 94449 94467 94476 94472 94459 94449 94452 94473 94507 94549 94588
3606.7153 94621 94648 94675 94700 94715 94704 94661 94587 94490 94378 94262
3612.0186 94156 94080 94049 94066 94123 94203 94287 94354 94386 94377 94331
3617.3218 94273 94237 94250 94310 94382 94420 94407 94359 94304 94264 94245
3622.6252 94241 94239 94230 94214 94201 94202 94225 94270 94330 94405 94500
3627.9285 94626 94774 94887 94903 94824 94688 94521 94337 94152 93996 93911
3633.2317 93927 94032 94161 94244 94246 94176 94072 93981 93940 93961 94025
3638.5349 94101 94161 94196 94209 94202 94177 94137 94092 94059 94052 94071
3643.8384 94101 94120 94111 94072 94011 93954 93928 93942 93982 94028 94076
3649.1416 94140 94224 94303 94338 94315 94254 94181 94114 94058 94012 93975
3654.4448 93950 93951 93990 94061 94130 94161 94145 94097 94036 93978 93930
3659.7480 93895 93873 93859 93854 93863 93889 93933 93987 94033 94052 94034
3665.0515 93980 93911 93853 93826 93834 93867 93905 93939 93981 94067 94215
3670.3547 94374 94460 94428 94294 94098 93868 93633 93430 93343 93493 93873
3675.6580 94204 94290 94196 94041 93898 93807 93780 93801 93830 93827 93786
3680.9612 93726 93675 93656 93672 93717 93775 93827 93862 93873 93859 93826
3686.2646 93777 93723 93678 93665 93697 93763 93841 93914 93975 94014 94018
3691.5679 93979 93908 93824 93747 93695 93678 93696 93734 93767 93772 93742
3696.8711 93688 93632 93594 93578 93576 93579 93581 93585 93600 93623 93641
3702.1743 93636 93607 93568 93541 93537 93558 93590 93612 93606 93573 93525
3707.4778 93478 93448 93438 93442 93440 93422 93397 93391 93432 93524 93629
3712.7810 93699 93718 93701 93666 93632 93605 93586 93571 93560 93561 93586
3718.0842 93639 93707 93759 93768 93727 93651 93574 93534 93561 93647 93749
3723.3875 93827 93862 93860 93834 93803 93778 93757 93730 93683 93610 93518
3728.6909 93419 93332 93277 93279 93360 93519 93707 93837 93851 93754 93591
3733.9941 93421 93313 93324 93452 93616 93729 93754 93695 93578 93438 93307
3739.2974 93210 93160 93154 93173 93197 93218 93246 93306 93431 93629 93821
3744.6006 93859 93761 93653 93591 93574 93585 93608 93627 93630 93616 93588
3749.9041 93553 93519 93495 93491 93504 93512 93489 93435 93368 93306 93269
3755.2073 93268 93304 93358 93404 93429 93441 93462 93513 93594 93672 93702
3760.5105 93665 93575 93459 93339 93234 93156 93110 93103 93141 93225 93333
3765.8137 93422 93453 93425 93364 93307 93289 93335 93436 93539 93577 93534
3771.1172 93441 93337 93247 93181 93143 93131 93141 93167 93199 93229 93247
3776.4204 93245 93227 93203 93194 93224 93309 93430 93543 93607 93612 93569
3781.7236 93501 93429 93371 93336 93321 93315 93304 93276 93234 93186 93146
3787.0269 93122 93114 93116 93116 93111 93102 93102 93121 93164 93223 93279
3792.3303 93315 93319 93296 93255 93211 93175 93162 93182 93239 93318 93387
3797.6335 93417 93397 93327 93223 93109 93030 93042 93163 93316 93384 93339
3802.9368 93228 93099 92983 92893 92841 92846 92934 93113 93328 93486 93541
3808.2400 93510 93431 93330 93227 93135 93070 93041 93051 93083 93113 93117
3813.5435 93082 93015 92945 92925 93006 93167 93303 93340 93283 93168 93031
3818.8467 92905 92828 92840 92961 93136 93248 93249 93181 93099 93034 92991
3824.1499 92969 92962 92966 92978 93001 93032 93066 93092 93103 93097 93076
3829.4531 93049 93032 93040 93083 93145 93197 93217 93208 93186 93161 93134
3834.7566 93095 93032 92953 92883 92864 92927 93063 93204 93282 93282 93234
3840.0598 93175 93134 93115 93108 93102 93087 93062 93030 93003 92988 92988
3845.3630 92995 92999 92992 92975 92955 92945 92950 92965 92975 92963 92927
3850.6663 92877 92838 92845 92931 93111 93338 93496 93524 93473 93409 93365
3855.9697 93349 93353 93355 93329 93258 93150 93034 92944 92909 92946 93042
3861.2729 93142 93179 93124 93003 92878 92820 92878 93034 93186 93235 93166
3866.5762 93019 92842 92669 92531 92470 92531 92709 92906 93015 93021 92967
3871.8794 92898 92849 92844 92891 92960 93000 92980 92914 92835 92765 92718
3877.1829 92694 92691 92706 92740 92793 92861 92927 92971 92986 92981 92965
3882.4861 92941 92907 92866 92821 92785 92773 92795 92846 92908 92963 92999
3887.7893 93008 92983 92925 92849 92782 92761 92805 92890 92958 92969 92930
3893.0925 92872 92823 92800 92798 92805 92808 92802 92798 92811 92855 92929
3898.3960 93013 93074 93087 93054 92995 92927 92857 92785 92716 92660 92634
3903.6992 92649 92701 92767 92816 92829 92810 92772 92734 92711 92711 92733
3909.0024 92767 92797 92807 92788 92744 92690 92647 92628 92631 92643 92647
3914.3057 92637 92619 92613 92638 92698 92777 92843 92878 92888 92887 92893
3919.6091 92907 92921 92915 92878 92811 92727 92643 92581 92561 92594 92668
3924.9124 92756 92823 92854 92853 92836 92824 92827 92839 92843 92822 92772
3930.2156 92710 92665 92656 92683 92724 92750 92749 92731 92720 92732 92769
3935.5188 92817 92854 92865 92846 92805 92756 92713 92683 92662 92647 92632
3940.8223 92619 92613 92626 92662 92715 92766 92794 92791 92761 92717 92675
3946.1255 92646 92635 92634 92632 92620 92594 92558 92518 92486 92473 92489
3951.4287 92535 92598 92656 92685 92673 92627 92571 92529 92512 92515 92522
3956.7319 92520 92507 92497 92503 92534 92588 92653 92714 92758 92775 92761
3962.0354 92720 92663 92603 92552 92516 92495 92482 92471 92459 92449 92451
3967.3386 92476 92531 92610 92698 92767 92800 92794 92763 92733 92726 92745
3972.6418 92776 92792 92776 92727 92664 92612 92588 92588 92597 92598 92587
3977.9451 92571 92565 92577 92605 92638 92661 92671 92668 92660 92649 92632
3983.2485 92601 92554 92501 92458 92442 92457 92494 92537 92567 92578 92573
3988.5518 92565 92563 92574 92598 92628 92655 92668 92661 92633 92592 92554
3993.8550 92533 92539 92570 92615 92660 92693 92713 92723 92730 92732 92726
3999.1582 92701 92651 92582
##END= 
